
time;ax;ay;az;Latitude;Longitude;Speed (m/s);
18:47:04:286;0,0000;0,0000;0,0000;0,00000000;0,00000000;0,00000000;
18:47:04:297;0,0000;0,0000;0,0000;56,33862334;37,52300022;0,00000000;
18:47:04:298;0,0000;0,0000;0,0000;56,33862334;37,52300022;0,00000000;
18:47:04:299;0,0000;0,0000;0,0000;56,33862334;37,52300022;0,00000000;
18:47:04:300;0,0000;0,0000;0,0000;56,33862334;37,52300022;0,00000000;
18:47:04:301;0,0000;0,0000;0,0000;56,33862334;37,52300022;0,00000000;
18:47:04:302;0,0000;0,0000;0,0000;56,33862334;37,52300022;0,00000000;
18:47:04:302;0,0000;0,0000;0,0000;56,33862334;37,52300022;0,00000000;
18:47:04:303;0,0000;0,0000;0,0000;56,33862334;37,52300022;0,00000000;
18:47:04:303;0,0000;0,0000;0,0000;56,33862334;37,52300022;0,00000000;
18:47:04:349;0,0000;0,0000;0,0000;56,33862334;37,52300022;0,00000000;
18:47:04:350;0,0000;0,0000;-0,0000;56,33862334;37,52300022;0,00000000;
18:47:04:370;0,0000;0,0000;-0,0000;56,33862334;37,52300022;0,00000000;
18:47:04:371;0,0000;0,0000;-0,0000;56,33862334;37,52300022;0,00000000;
18:47:04:371;0,0000;0,0000;-0,0000;56,33862334;37,52300022;0,00000000;
18:47:04:372;0,0000;0,0000;-0,0000;56,33862334;37,52300022;0,00000000;
18:47:04:374;0,0000;0,0000;-0,0000;56,33862334;37,52300022;0,00000000;
18:47:04:386;0,0000;0,0000;-0,0000;56,33862334;37,52300022;0,00000000;
18:47:04:386;0,0735;0,2215;-0,1883;56,33862334;37,52300022;0,00000000;
18:47:04:410;0,0735;0,2215;-0,1883;56,33862334;37,52300022;0,00000000;
18:47:04:428;0,0735;0,2215;-0,1883;56,33862334;37,52300022;0,00000000;
18:47:04:429;0,0459;0,0777;-0,0668;56,33862334;37,52300022;0,00000000;
18:47:04:485;0,0459;0,0777;-0,0668;56,33862334;37,52300022;0,00000000;
18:47:04:537;0,0459;0,0777;-0,0668;56,33862334;37,52300022;0,00000000;
18:47:04:539;0,0075;0,1002;0,4605;56,33862334;37,52300022;0,00000000;
18:47:04:598;0,0075;0,1002;0,4605;56,33862334;37,52300022;0,00000000;
18:47:04:600;0,0075;0,1002;0,4605;56,33862334;37,52300022;0,00000000;
18:47:04:602;0,0075;0,1002;0,4605;56,33862334;37,52300022;0,00000000;
18:47:04:604;0,0075;0,1002;0,4605;56,33862334;37,52300022;0,00000000;
18:47:04:608;0,0075;0,1002;0,4605;56,33862334;37,52300022;0,00000000;
18:47:04:611;0,0075;0,1002;0,4605;56,33862334;37,52300022;0,00000000;
18:47:04:614;0,0075;0,1002;0,4605;56,33862334;37,52300022;0,00000000;
18:47:04:616;0,0105;-0,0997;0,4033;56,33862334;37,52300022;0,00000000;
18:47:04:660;0,0105;-0,0997;0,4033;56,33862334;37,52300022;0,00000000;
18:47:04:663;-0,1151;0,0020;0,1953;56,33862334;37,52300022;0,00000000;
18:47:04:679;-0,1151;0,0020;0,1953;56,33862334;37,52300022;0,00000000;
18:47:04:681;-0,1151;0,0020;0,1953;56,33862334;37,52300022;0,00000000;
18:47:04:683;-0,1151;0,0020;0,1953;56,33862334;37,52300022;0,00000000;
18:47:04:685;-0,1151;0,0020;0,1953;56,33862334;37,52300022;0,00000000;
18:47:04:687;-0,1151;0,0020;0,1953;56,33862334;37,52300022;0,00000000;
18:47:04:688;-0,1046;0,0017;0,1537;56,33862334;37,52300022;0,00000000;
18:47:04:729;-0,1046;0,0017;0,1537;56,33862334;37,52300022;0,00000000;
18:47:04:731;0,0451;-0,0324;0,1536;56,33862334;37,52300022;0,00000000;
18:47:04:790;0,0451;-0,0324;0,1536;56,33862334;37,52300022;0,00000000;
18:47:04:802;0,0451;-0,0324;0,1536;56,33862334;37,52300022;0,00000000;
18:47:04:803;0,0451;-0,0324;0,1536;56,33862334;37,52300022;0,00000000;
18:47:04:804;0,0451;-0,0324;0,1536;56,33862334;37,52300022;0,00000000;
18:47:04:808;0,0451;-0,0324;0,1536;56,33862334;37,52300022;0,00000000;
18:47:04:809;0,0451;-0,0324;0,1536;56,33862334;37,52300022;0,00000000;
18:47:04:810;0,0451;-0,0324;0,1536;56,33862334;37,52300022;0,00000000;
18:47:04:811;0,1400;-0,0485;0,1626;56,33862334;37,52300022;0,00000000;
18:47:04:848;0,1400;-0,0485;0,1626;56,33862334;37,52300022;0,00000000;
18:47:04:850;-0,1754;0,2634;-0,2395;56,33862334;37,52300022;0,00000000;
18:47:04:866;-0,1754;0,2634;-0,2395;56,33862334;37,52300022;0,00000000;
18:47:04:867;-0,1754;0,2634;-0,2395;56,33862334;37,52300022;0,00000000;
18:47:04:868;-0,1754;0,2634;-0,2395;56,33862334;37,52300022;0,00000000;
18:47:04:919;-0,1754;0,2634;-0,2395;56,33862334;37,52300022;0,00000000;
18:47:04:920;-0,1663;-0,3006;0,0586;56,33862334;37,52300022;0,00000000;
18:47:04:930;-0,1663;-0,3006;0,0586;56,33862334;37,52300022;0,00000000;
18:47:04:931;-0,1663;-0,3006;0,0586;56,33862334;37,52300022;0,00000000;
18:47:04:932;-0,1663;-0,3006;0,0586;56,33862334;37,52300022;0,00000000;
18:47:04:984;-0,1663;-0,3006;0,0586;56,33862334;37,52300022;0,00000000;
18:47:04:991;-0,3500;-0,3749;-0,3760;56,33862334;37,52300022;0,00000000;
18:47:05:015;-0,3500;-0,3749;-0,3760;56,33862334;37,52300022;0,00000000;
18:47:05:016;-0,3500;-0,3749;-0,3760;56,33862334;37,52300022;0,00000000;
18:47:05:016;-0,3500;-0,3749;-0,3760;56,33862334;37,52300022;0,00000000;
18:47:05:017;-0,3500;-0,3749;-0,3760;56,33862334;37,52300022;0,00000000;
18:47:05:060;1,0189;0,6274;-0,6278;56,33862334;37,52300022;0,00000000;
18:47:05:062;1,0189;0,6274;-0,6278;56,33862334;37,52300022;0,00000000;
18:47:05:087;1,0189;0,6274;-0,6278;56,33862334;37,52300022;0,00000000;
18:47:05:088;1,0189;0,6274;-0,6278;56,33862334;37,52300022;0,00000000;
18:47:05:090;1,0189;0,6274;-0,6278;56,33862334;37,52300022;0,00000000;
18:47:05:092;1,0189;0,6274;-0,6278;56,33862334;37,52300022;0,00000000;
18:47:05:141;1,0189;0,6274;-0,6278;56,33862334;37,52300022;0,00000000;
18:47:05:142;0,9550;0,9954;-0,5730;56,33862334;37,52300022;0,00000000;
18:47:05:147;0,9550;0,9954;-0,5730;56,33862334;37,52300022;0,00000000;
18:47:05:148;0,9550;0,9954;-0,5730;56,33862334;37,52300022;0,00000000;
18:47:05:150;0,9550;0,9954;-0,5730;56,33862334;37,52300022;0,00000000;
18:47:05:183;0,9550;0,9954;-0,5730;56,33862334;37,52300022;0,00000000;
18:47:05:184;0,1260;0,7949;-0,5103;56,33862334;37,52300022;0,00000000;
18:47:05:243;0,1260;0,7949;-0,5103;56,33862334;37,52300022;0,00000000;
18:47:05:245;0,1260;0,7949;-0,5103;56,33862334;37,52300022;0,00000000;
18:47:05:247;-0,0757;-0,2698;0,4789;56,33862334;37,52300022;0,00000000;
18:47:05:303;-0,0757;-0,2698;0,4789;56,33862334;37,52300022;0,00000000;
18:47:05:306;-0,0757;-0,2698;0,4789;56,33862334;37,52300022;0,00000000;
18:47:05:308;-0,1535;0,0028;1,1789;56,33862334;37,52300022;0,00000000;
18:47:05:363;-0,1535;0,0028;1,1789;56,33862334;37,52300022;0,00000000;
18:47:05:364;-0,1535;0,0028;1,1789;56,33862334;37,52300022;0,00000000;
18:47:05:366;0,7125;1,1321;0,7421;56,33862334;37,52300022;0,00000000;
18:47:05:422;0,7125;1,1321;0,7421;56,33862334;37,52300022;0,00000000;
18:47:05:424;0,7125;1,1321;0,7421;56,33862334;37,52300022;0,00000000;
18:47:05:426;-0,3284;0,1350;-0,0229;56,33862334;37,52300022;0,00000000;
18:47:05:446;-0,3284;0,1350;-0,0229;56,33862334;37,52300022;0,00000000;
18:47:05:503;-0,3284;0,1350;-0,0229;56,33862334;37,52300022;0,00000000;
18:47:05:505;0,0654;-0,5842;0,5146;56,33862334;37,52300022;0,00000000;
18:47:05:507;0,0654;-0,5842;0,5146;56,33862334;37,52300022;0,00000000;
18:47:05:564;0,0654;-0,5842;0,5146;56,33862334;37,52300022;0,00000000;
18:47:05:567;0,0654;-0,5842;0,5146;56,33862334;37,52300022;0,00000000;
18:47:05:569;1,2428;-0,4002;0,3845;56,33862334;37,52300022;0,00000000;
18:47:05:625;1,2428;-0,4002;0,3845;56,33862334;37,52300022;0,00000000;
18:47:05:629;1,2428;-0,4002;0,3845;56,33862334;37,52300022;0,00000000;
18:47:05:631;0,5545;-1,1921;-0,5592;56,33862334;37,52300022;0,00000000;
18:47:05:686;0,5545;-1,1921;-0,5592;56,33862334;37,52300022;0,00000000;
18:47:05:688;0,5545;-1,1921;-0,5592;56,33862334;37,52300022;0,00000000;
18:47:05:690;-1,0977;-1,4262;-1,2573;56,33862334;37,52300022;0,00000000;
18:47:05:708;-1,0977;-1,4262;-1,2573;56,33862334;37,52300022;0,00000000;
18:47:05:710;0,2719;-1,1131;-1,1230;56,33862334;37,52300022;0,00000000;
18:47:05:765;0,2719;-1,1131;-1,1230;56,33862334;37,52300022;0,00000000;
18:47:05:767;0,2719;-1,1131;-1,1230;56,33862334;37,52300022;0,00000000;
18:47:05:769;1,2497;1,9577;0,3302;56,33862334;37,52300022;0,00000000;
18:47:05:826;-1,5689;-0,4672;-1,3433;56,33862334;37,52300022;0,00000000;
18:47:05:830;-1,5689;-0,4672;-1,3433;56,33862334;37,52300022;0,00000000;
18:47:05:832;-1,5689;-0,4672;-1,3433;56,33862334;37,52300022;0,00000000;
18:47:05:886;-3,8777;-0,1591;-0,7802;56,33862334;37,52300022;0,00000000;
18:47:05:889;-3,8777;-0,1591;-0,7802;56,33862334;37,52300022;0,00000000;
18:47:05:890;-3,8777;-0,1591;-0,7802;56,33862334;37,52300022;0,00000000;
18:47:05:947;-3,8777;-0,1591;-0,7802;56,33862334;37,52300022;0,00000000;
18:47:05:950;-3,8777;-0,1591;-0,7802;56,33862334;37,52300022;0,00000000;
18:47:05:952;-2,1085;-1,2320;2,1016;56,33862334;37,52300022;0,00000000;
18:47:06:026;-2,1085;-1,2320;2,1016;56,33862334;37,52300022;0,00000000;
18:47:06:029;-2,1085;-1,2320;2,1016;56,33862334;37,52300022;0,00000000;
18:47:06:031;-0,5354;-0,3472;0,6692;56,33862334;37,52300022;0,00000000;
18:47:06:086;-0,5354;-0,3472;0,6692;56,33862334;37,52300022;0,00000000;
18:47:06:087;-0,5354;-0,3472;0,6692;56,33862334;37,52300022;0,00000000;
18:47:06:088;-0,8019;-0,7555;1,2263;56,33862334;37,52300022;0,00000000;
18:47:06:147;-0,8019;-0,7555;1,2263;56,33862334;37,52300022;0,00000000;
18:47:06:150;-0,8019;-0,7555;1,2263;56,33862334;37,52300022;0,00000000;
18:47:06:151;-0,2143;-0,7218;-0,0554;56,33862334;37,52300022;0,00000000;
18:47:06:207;-0,2143;-0,7218;-0,0554;56,33862334;37,52300022;0,00000000;
18:47:06:209;-0,2143;-0,7218;-0,0554;56,33862334;37,52300022;0,00000000;
18:47:06:211;1,1908;-0,2286;-0,6610;56,33862334;37,52300022;0,00000000;
18:47:06:228;1,1908;-0,2286;-0,6610;56,33862334;37,52300022;0,00000000;
18:47:06:288;1,2265;0,0318;-2,0327;56,33862334;37,52300022;0,00000000;
18:47:06:290;1,2265;0,0318;-2,0327;56,33862334;37,52300022;0,00000000;
18:47:06:291;1,2265;0,0318;-2,0327;56,33862334;37,52300022;0,00000000;
18:47:06:349;1,2265;0,0318;-2,0327;56,33862334;37,52300022;0,00000000;
18:47:06:351;1,2265;0,0318;-2,0327;56,33862334;37,52300022;0,00000000;
18:47:06:353;2,6007;0,2690;-1,3344;56,33862334;37,52300022;0,00000000;
18:47:06:408;2,6007;0,2690;-1,3344;56,33862334;37,52300022;0,00000000;
18:47:06:411;2,6007;0,2690;-1,3344;56,33862334;37,52300022;0,00000000;
18:47:06:413;3,9791;1,2125;0,8023;56,33862334;37,52300022;0,00000000;
18:47:06:469;3,9791;1,2125;0,8023;56,33862334;37,52300022;0,00000000;
18:47:06:471;3,9791;1,2125;0,8023;56,33862334;37,52300022;0,00000000;
18:47:06:481;-0,5189;-0,1595;-1,0301;56,33862334;37,52300022;0,00000000;
18:47:06:491;-0,8532;0,4773;-1,3133;56,33862334;37,52300022;0,00000000;
18:47:06:494;-0,8532;0,4773;-1,3133;56,33862334;37,52300022;0,00000000;
18:47:06:548;-0,8532;0,4773;-1,3133;56,33862334;37,52300022;0,00000000;
18:47:06:549;-0,8532;0,4773;-1,3133;56,33862334;37,52300022;0,00000000;
18:47:06:551;0,2248;-0,3298;1,4717;56,33862334;37,52300022;0,00000000;
18:47:06:609;0,2248;-0,3298;1,4717;56,33862334;37,52300022;0,00000000;
18:47:06:612;0,2248;-0,3298;1,4717;56,35190979;37,52178677;7,28999996;
18:47:06:614;1,1945;-1,2421;2,8013;56,35190979;37,52178677;7,28999996;
18:47:06:668;1,1945;-1,2421;2,8013;56,35190979;37,52178677;7,28999996;
18:47:06:669;1,1945;-1,2421;2,8013;56,35190979;37,52178677;7,28999996;
18:47:06:671;0,2763;-0,6168;0,9281;56,35190979;37,52178677;7,28999996;
18:47:06:735;-0,0325;-0,1399;-0,5087;56,35190979;37,52178677;7,28999996;
18:47:06:738;-0,0325;-0,1399;-0,5087;56,35190979;37,52178677;7,28999996;
18:47:06:740;-0,0325;-0,1399;-0,5087;56,35190979;37,52178677;7,28999996;
18:47:06:813;-0,0325;-0,1399;-0,5087;56,35190979;37,52178677;7,28999996;
18:47:06:815;-0,0325;-0,1399;-0,5087;56,35190979;37,52178677;7,28999996;
18:47:06:817;0,1311;0,0062;-0,2413;56,35190979;37,52178677;7,28999996;
18:47:06:869;0,1311;0,0062;-0,2413;56,35190979;37,52178677;7,28999996;
18:47:06:870;0,1311;0,0062;-0,2413;56,35190979;37,52178677;7,28999996;
18:47:06:871;-0,5824;0,0856;0,5365;56,35190979;37,52178677;7,28999996;
18:47:06:931;-0,3709;-0,0091;0,9144;56,35190979;37,52178677;7,28999996;
18:47:06:933;-0,3709;-0,0091;0,9144;56,35190979;37,52178677;7,28999996;
18:47:06:934;-0,3709;-0,0091;0,9144;56,35190979;37,52178677;7,28999996;
18:47:06:993;-0,3709;-0,0091;0,9144;56,35190979;37,52178677;7,28999996;
18:47:06:997;-0,3709;-0,0091;0,9144;56,35190979;37,52178677;7,28999996;
18:47:06:999;-0,4797;-0,5442;0,5932;56,35190979;37,52178677;7,28999996;
18:47:07:013;-0,4797;-0,5442;0,5932;56,35190979;37,52178677;7,28999996;
18:47:07:072;-0,4797;-0,5442;0,5932;56,35190979;37,52178677;7,28999996;
18:47:07:074;-0,4797;-0,5442;0,5932;56,35190979;37,52178677;7,28999996;
18:47:07:077;0,4129;0,4391;0,9178;56,35190979;37,52178677;7,28999996;
18:47:07:131;0,4129;0,4391;0,9178;56,35190979;37,52178677;7,28999996;
18:47:07:132;0,4129;0,4391;0,9178;56,35190979;37,52178677;7,28999996;
18:47:07:133;0,0828;-0,2942;0,0826;56,35190979;37,52178677;7,28999996;
18:47:07:195;0,0828;-0,2942;0,0826;56,35190979;37,52178677;7,28999996;
18:47:07:197;0,0455;0,1823;1,4118;56,35190979;37,52178677;7,28999996;
18:47:07:199;0,0455;0,1823;1,4118;56,35190979;37,52178677;7,28999996;
18:47:07:253;0,0455;0,1823;1,4118;56,35190979;37,52178677;7,28999996;
18:47:07:255;0,0455;0,1823;1,4118;56,35190979;37,52178677;7,28999996;
18:47:07:257;1,8547;0,0760;-0,1794;56,35190979;37,52178677;7,28999996;
18:47:07:276;1,8547;0,0760;-0,1794;56,35190979;37,52178677;7,28999996;
18:47:07:279;1,8394;0,3210;-0,2888;56,35190979;37,52178677;7,28999996;
18:47:07:332;1,8394;0,3210;-0,2888;56,35190979;37,52178677;7,28999996;
18:47:07:333;1,8394;0,3210;-0,2888;56,35190979;37,52178677;7,28999996;
18:47:07:335;2,2375;0,8522;1,8673;56,35190979;37,52178677;7,28999996;
18:47:07:397;2,2375;0,8522;1,8673;56,35190979;37,52178677;7,28999996;
18:47:07:399;2,2375;0,8522;1,8673;56,35190979;37,52178677;7,28999996;
18:47:07:402;2,1744;-0,3677;3,3415;56,35190979;37,52178677;7,28999996;
18:47:07:452;2,1744;-0,3677;3,3415;56,35190979;37,52178677;7,28999996;
18:47:07:454;2,1744;-0,3677;3,3415;56,35190979;37,52178677;7,28999996;
18:47:07:455;-0,5452;-1,5241;0,8242;56,35190979;37,52178677;7,28999996;
18:47:07:515;-0,5452;-1,5241;0,8242;56,35190979;37,52178677;7,28999996;
18:47:07:518;-0,5452;-1,5241;0,8242;56,35190979;37,52178677;7,28999996;
18:47:07:520;-1,8766;-1,3007;-2,1838;56,35190979;37,52178677;7,28999996;
18:47:07:597;-1,8766;-1,3007;-2,1838;56,35190979;37,52178677;7,28999996;
18:47:07:599;-1,8766;-1,3007;-2,1838;56,35179116;37,52171992;5,61999989;
18:47:07:601;-2,7810;-0,7620;-1,3888;56,35179116;37,52171992;5,61999989;
18:47:07:654;-2,7810;-0,7620;-1,3888;56,35179116;37,52171992;5,61999989;
18:47:07:656;-2,7810;-0,7620;-1,3888;56,35179116;37,52171992;5,61999989;
18:47:07:658;-3,0386;-0,9356;-2,0298;56,35179116;37,52171992;5,61999989;
18:47:07:715;-3,0386;-0,9356;-2,0298;56,35179116;37,52171992;5,61999989;
18:47:07:718;-1,8207;-0,7788;-2,3582;56,35179116;37,52171992;5,61999989;
18:47:07:721;-1,8207;-0,7788;-2,3582;56,35179116;37,52171992;5,61999989;
18:47:07:777;-1,8207;-0,7788;-2,3582;56,35179116;37,52171992;5,61999989;
18:47:07:780;-1,8207;-0,7788;-2,3582;56,35179116;37,52171992;5,61999989;
18:47:07:781;0,2692;-0,2062;-0,8247;56,35179116;37,52171992;5,61999989;
18:47:07:797;0,2692;-0,2062;-0,8247;56,35179116;37,52171992;5,61999989;
18:47:07:855;0,2692;-0,2062;-0,8247;56,35179116;37,52171992;5,61999989;
18:47:07:857;0,6390;-0,0809;1,4824;56,35179116;37,52171992;5,61999989;
18:47:07:859;0,6390;-0,0809;1,4824;56,35179116;37,52171992;5,61999989;
18:47:07:916;0,6390;-0,0809;1,4824;56,35179116;37,52171992;5,61999989;
18:47:07:918;0,6390;-0,0809;1,4824;56,35179116;37,52171992;5,61999989;
18:47:07:920;-0,6292;-0,1963;0,5752;56,35179116;37,52171992;5,61999989;
18:47:07:977;-0,6292;-0,1963;0,5752;56,35179116;37,52171992;5,61999989;
18:47:07:979;-0,6292;-0,1963;0,5752;56,35179116;37,52171992;5,61999989;
18:47:07:981;1,0825;0,7261;-0,1369;56,35179116;37,52171992;5,61999989;
18:47:08:037;1,0825;0,7261;-0,1369;56,35179116;37,52171992;5,61999989;
18:47:08:039;1,0825;0,7261;-0,1369;56,35179116;37,52171992;5,61999989;
18:47:08:041;1,4002;1,3148;0,7775;56,35179116;37,52171992;5,61999989;
18:47:08:060;1,4002;1,3148;0,7775;56,35179116;37,52171992;5,61999989;
18:47:08:061;1,2690;1,4950;0,6871;56,35179116;37,52171992;5,61999989;
18:47:08:127;1,2690;1,4950;0,6871;56,35179116;37,52171992;5,61999989;
18:47:08:128;1,2690;1,4950;0,6871;56,35179116;37,52171992;5,61999989;
18:47:08:130;-0,5081;-0,5033;2,1465;56,35179116;37,52171992;5,61999989;
18:47:08:186;-0,5081;-0,5033;2,1465;56,35179116;37,52171992;5,61999989;
18:47:08:187;-0,5081;-0,5033;2,1465;56,35179116;37,52171992;5,61999989;
18:47:08:188;-0,3944;-1,2492;1,8429;56,35179116;37,52171992;5,61999989;
18:47:08:250;-0,3944;-1,2492;1,8429;56,35179116;37,52171992;5,61999989;
18:47:08:251;-0,2257;-1,7268;1,1693;56,35179116;37,52171992;5,61999989;
18:47:08:252;-0,2257;-1,7268;1,1693;56,35179116;37,52171992;5,61999989;
18:47:08:309;-0,2257;-1,7268;1,1693;56,35179116;37,52171992;5,61999989;
18:47:08:311;-0,2257;-1,7268;1,1693;56,35179116;37,52171992;5,61999989;
18:47:08:313;0,9641;-2,3008;2,3937;56,35179116;37,52171992;5,61999989;
18:47:08:379;0,9641;-2,3008;2,3937;56,35179116;37,52171992;5,61999989;
18:47:08:381;0,9641;-2,3008;2,3937;56,35179116;37,52171992;5,61999989;
18:47:08:383;-1,5020;-1,7778;1,5840;56,35179116;37,52171992;5,61999989;
18:47:08:439;-1,5020;-1,7778;1,5840;56,35179116;37,52171992;5,61999989;
18:47:08:441;-1,5020;-1,7778;1,5840;56,35179116;37,52171992;5,61999989;
18:47:08:442;-0,4616;-2,5236;-2,8604;56,35179116;37,52171992;5,61999989;
18:47:08:500;-0,4616;-2,5236;-2,8604;56,35179116;37,52171992;5,61999989;
18:47:08:503;-2,7750;-1,3759;-3,1772;56,35179116;37,52171992;5,61999989;
18:47:08:506;-2,7750;-1,3759;-3,1772;56,35179116;37,52171992;5,61999989;
18:47:08:560;-2,7750;-1,3759;-3,1772;56,35179116;37,52171992;5,61999989;
18:47:08:563;-0,3862;-0,4496;0,1741;56,35179116;37,52171992;5,61999989;
18:47:08:566;-0,3862;-0,4496;0,1741;56,35179116;37,52171992;5,61999989;
18:47:08:588;-0,3862;-0,4496;0,1741;56,35179116;37,52171992;5,61999989;
18:47:08:640;-0,3862;-0,4496;0,1741;56,35179116;37,52171992;5,61999989;
18:47:08:645;-0,3862;-0,4496;0,1741;56,35179116;37,52171992;5,61999989;
18:47:08:647;1,7994;0,7867;2,5716;56,35179116;37,52171992;5,61999989;
18:47:08:700;1,7994;0,7867;2,5716;56,35179116;37,52171992;5,61999989;
18:47:08:703;3,7197;0,4506;2,1197;56,35179116;37,52171992;5,61999989;
18:47:08:705;3,7197;0,4506;2,1197;56,35179116;37,52171992;5,61999989;
18:47:08:761;3,7197;0,4506;2,1197;56,35179116;37,52171992;5,61999989;
18:47:08:763;3,7197;0,4506;2,1197;56,35179116;37,52171992;5,61999989;
18:47:08:765;-0,5840;0,9897;5,7546;56,35179116;37,52171992;5,61999989;
18:47:08:822;-0,5840;0,9897;5,7546;56,35179116;37,52171992;5,61999989;
18:47:08:824;-0,7214;-1,5495;0,4608;56,35182812;37,52176913;6,40999985;
18:47:08:826;-0,7214;-1,5495;0,4608;56,35182812;37,52176913;6,40999985;
18:47:08:844;-0,8501;-1,7945;0,3614;56,35182812;37,52176913;6,40999985;
18:47:08:846;-0,8501;-1,7945;0,3614;56,35182812;37,52176913;6,40999985;
18:47:08:900;-0,8501;-1,7945;0,3614;56,35182812;37,52176913;6,40999985;
18:47:08:902;-0,8501;-1,7945;0,3614;56,35182812;37,52176913;6,40999985;
18:47:08:903;-0,5818;0,0724;-2,1208;56,35182812;37,52176913;6,40999985;
18:47:08:962;-0,5818;0,0724;-2,1208;56,35182812;37,52176913;6,40999985;
18:47:08:964;0,5026;-0,2637;-2,0338;56,35182812;37,52176913;6,40999985;
18:47:08:967;0,5026;-0,2637;-2,0338;56,35182812;37,52176913;6,40999985;
18:47:09:022;0,5026;-0,2637;-2,0338;56,35182812;37,52176913;6,40999985;
18:47:09:026;0,5026;-0,2637;-2,0338;56,35182812;37,52176913;6,40999985;
18:47:09:027;-1,1872;-1,0519;1,4791;56,35182812;37,52176913;6,40999985;
18:47:09:083;-1,1872;-1,0519;1,4791;56,35182812;37,52176913;6,40999985;
18:47:09:085;-1,1872;-1,0519;1,4791;56,35182812;37,52176913;6,40999985;
18:47:09:088;-3,0522;-1,1429;0,4844;56,35182812;37,52176913;6,40999985;
18:47:09:163;-3,0522;-1,1429;0,4844;56,35182812;37,52176913;6,40999985;
18:47:09:166;-3,0522;-1,1429;0,4844;56,35182812;37,52176913;6,40999985;
18:47:09:167;0,1622;0,2633;0,2018;56,35182812;37,52176913;6,40999985;
18:47:09:224;0,1622;0,2633;0,2018;56,35182812;37,52176913;6,40999985;
18:47:09:227;0,1622;0,2633;0,2018;56,35182812;37,52176913;6,40999985;
18:47:09:229;0,1129;-0,1075;-0,5300;56,35182812;37,52176913;6,40999985;
18:47:09:283;0,1129;-0,1075;-0,5300;56,35182812;37,52176913;6,40999985;
18:47:09:287;-0,9445;-2,0275;1,4473;56,35182812;37,52176913;6,40999985;
18:47:09:289;-0,9445;-2,0275;1,4473;56,35182812;37,52176913;6,40999985;
18:47:09:344;-0,9445;-2,0275;1,4473;56,35182812;37,52176913;6,40999985;
18:47:09:347;-0,9445;-2,0275;1,4473;56,35182812;37,52176913;6,40999985;
18:47:09:351;0,3260;-0,8029;-0,1314;56,35182812;37,52176913;6,40999985;
18:47:09:368;0,3260;-0,8029;-0,1314;56,35182812;37,52176913;6,40999985;
18:47:09:428;0,3260;-0,8029;-0,1314;56,35182812;37,52176913;6,40999985;
18:47:09:431;0,3260;-0,8029;-0,1314;56,35182812;37,52176913;6,40999985;
18:47:09:432;0,4695;-1,2074;0,0831;56,35182812;37,52176913;6,40999985;
18:47:09:484;0,4695;-1,2074;0,0831;56,35182812;37,52176913;6,40999985;
18:47:09:487;0,3361;-0,5390;0,0884;56,35182812;37,52176913;6,40999985;
18:47:09:489;0,3361;-0,5390;0,0884;56,35182812;37,52176913;6,40999985;
18:47:09:546;0,3361;-0,5390;0,0884;56,35182812;37,52176913;6,40999985;
18:47:09:548;0,3361;-0,5390;0,0884;56,35182812;37,52176913;6,40999985;
18:47:09:550;0,0179;-1,0971;0,0461;56,35182812;37,52176913;6,40999985;
18:47:09:605;0,0179;-1,0971;0,0461;56,35182812;37,52176913;6,40999985;
18:47:09:608;0,0179;-1,0971;0,0461;56,35182812;37,52176913;6,40999985;
18:47:09:611;0,1246;-0,4332;0,2289;56,35182812;37,52176913;6,40999985;
18:47:09:631;0,1246;-0,4332;0,2289;56,35182812;37,52176913;6,40999985;
18:47:09:635;0,1138;-0,4370;0,2246;56,35182812;37,52176913;6,40999985;
18:47:09:686;0,1138;-0,4370;0,2246;56,35182812;37,52176913;6,40999985;
18:47:09:689;0,1138;-0,4370;0,2246;56,35182812;37,52176913;6,40999985;
18:47:09:691;0,0459;-0,3589;0,3106;56,35182812;37,52176913;6,40999985;
18:47:09:746;0,0459;-0,3589;0,3106;56,35182812;37,52176913;6,40999985;
18:47:09:750;0,0459;-0,3589;0,3106;56,35182812;37,52176913;6,40999985;
18:47:09:751;0,3483;-0,9625;0,0317;56,35182812;37,52176913;6,40999985;
18:47:09:805;0,3483;-0,9625;0,0317;56,35182812;37,52176913;6,40999985;
18:47:09:808;0,3483;-0,9625;0,0317;56,35176368;37,52172362;5,30000019;
18:47:09:809;-0,1372;0,2241;0,1685;56,35176368;37,52172362;5,30000019;
18:47:09:866;-0,1372;0,2241;0,1685;56,35176368;37,52172362;5,30000019;
18:47:09:869;-0,1372;0,2241;0,1685;56,35176368;37,52172362;5,30000019;
18:47:09:870;0,1477;-0,0016;0,2089;56,35176368;37,52172362;5,30000019;
18:47:09:947;0,1477;-0,0016;0,2089;56,35176368;37,52172362;5,30000019;
18:47:09:950;0,3602;-0,8445;0,0531;56,35176368;37,52172362;5,30000019;
18:47:09:953;0,3602;-0,8445;0,0531;56,35176368;37,52172362;5,30000019;
18:47:10:009;0,3602;-0,8445;0,0531;56,35176368;37,52172362;5,30000019;
18:47:10:011;0,3602;-0,8445;0,0531;56,35176368;37,52172362;5,30000019;
18:47:10:014;0,0646;-0,3765;0,2783;56,35176368;37,52172362;5,30000019;
18:47:10:070;0,0646;-0,3765;0,2783;56,35176368;37,52172362;5,30000019;
18:47:10:073;0,0646;-0,3765;0,2783;56,35176368;37,52172362;5,30000019;
18:47:10:076;0,6595;-0,5412;0,1107;56,35176368;37,52172362;5,30000019;
18:47:10:128;0,6595;-0,5412;0,1107;56,35176368;37,52172362;5,30000019;
18:47:10:130;0,6595;-0,5412;0,1107;56,35176368;37,52172362;5,30000019;
18:47:10:132;-0,6918;-0,8906;0,1011;56,35176368;37,52172362;5,30000019;
18:47:10:154;-0,6918;-0,8906;0,1011;56,35176368;37,52172362;5,30000019;
18:47:10:208;-0,6918;-0,8906;0,1011;56,35176368;37,52172362;5,30000019;
18:47:10:211;0,1464;-0,2726;0,1191;56,35176368;37,52172362;5,30000019;
18:47:10:216;0,1464;-0,2726;0,1191;56,35176368;37,52172362;5,30000019;
18:47:10:269;0,1464;-0,2726;0,1191;56,35176368;37,52172362;5,30000019;
18:47:10:271;0,1464;-0,2726;0,1191;56,35176368;37,52172362;5,30000019;
18:47:10:273;0,1022;-0,3550;0,0600;56,35176368;37,52172362;5,30000019;
18:47:10:329;0,1381;-0,2911;0,1938;56,35176368;37,52172362;5,30000019;
18:47:10:334;0,1381;-0,2911;0,1938;56,35176368;37,52172362;5,30000019;
18:47:10:336;0,1381;-0,2911;0,1938;56,35176368;37,52172362;5,30000019;
18:47:10:388;0,1381;-0,2911;0,1938;56,35176368;37,52172362;5,30000019;
18:47:10:390;0,1381;-0,2911;0,1938;56,35176368;37,52172362;5,30000019;
18:47:10:391;0,1076;-0,2731;0,1602;56,35176368;37,52172362;5,30000019;
18:47:10:413;0,1076;-0,2731;0,1602;56,35176368;37,52172362;5,30000019;
18:47:10:416;0,1195;-0,2710;0,1575;56,35176368;37,52172362;5,30000019;
18:47:10:470;0,1195;-0,2710;0,1575;56,35176368;37,52172362;5,30000019;
18:47:10:472;0,1195;-0,2710;0,1575;56,35176368;37,52172362;5,30000019;
18:47:10:475;0,0041;-0,2205;0,2400;56,35176368;37,52172362;5,30000019;
18:47:10:530;0,0041;-0,2205;0,2400;56,35176368;37,52172362;5,30000019;
18:47:10:532;0,0041;-0,2205;0,2400;56,35176368;37,52172362;5,30000019;
18:47:10:535;-0,5675;0,2973;0,3559;56,35176368;37,52172362;5,30000019;
18:47:10:591;-0,5675;0,2973;0,3559;56,35176368;37,52172362;5,30000019;
18:47:10:593;-0,5675;0,2973;0,3559;56,35176368;37,52172362;5,30000019;
18:47:10:595;1,1446;-0,5279;-0,1126;56,35176368;37,52172362;5,30000019;
18:47:10:651;1,1446;-0,5279;-0,1126;56,35176368;37,52172362;5,30000019;
18:47:10:654;-0,5373;0,9360;-0,2688;56,35176368;37,52172362;5,30000019;
18:47:10:656;-0,5373;0,9360;-0,2688;56,35176368;37,52172362;5,30000019;
18:47:10:720;-0,5373;0,9360;-0,2688;56,35176368;37,52172362;5,30000019;
18:47:10:723;-0,5373;0,9360;-0,2688;56,35176368;37,52172362;5,30000019;
18:47:10:725;-0,0190;-1,4459;0,5768;56,35176368;37,52172362;5,30000019;
18:47:10:790;-0,0190;-1,4459;0,5768;56,35176368;37,52172362;5,30000019;
18:47:10:792;0,1793;-0,3735;-0,1395;56,35171958;37,52170803;4,76999998;
18:47:10:794;0,1793;-0,3735;-0,1395;56,35171958;37,52170803;4,76999998;
18:47:10:841;0,1793;-0,3735;-0,1395;56,35171958;37,52170803;4,76999998;
18:47:10:842;0,1793;-0,3735;-0,1395;56,35171958;37,52170803;4,76999998;
18:47:10:844;0,0093;-0,3592;0,1422;56,35171958;37,52170803;4,76999998;
18:47:10:902;0,0093;-0,3592;0,1422;56,35171958;37,52170803;4,76999998;
18:47:10:906;0,0093;-0,3592;0,1422;56,35171958;37,52170803;4,76999998;
18:47:10:908;0,2347;-0,4027;0,1052;56,35171958;37,52170803;4,76999998;
18:47:10:938;0,2347;-0,4027;0,1052;56,35171958;37,52170803;4,76999998;
18:47:10:992;0,2347;-0,4027;0,1052;56,35171958;37,52170803;4,76999998;
18:47:10:995;0,4244;-0,1664;0,2463;56,35171958;37,52170803;4,76999998;
18:47:10:997;0,4244;-0,1664;0,2463;56,35171958;37,52170803;4,76999998;
18:47:11:053;0,4244;-0,1664;0,2463;56,35171958;37,52170803;4,76999998;
18:47:11:062;0,4244;-0,1664;0,2463;56,35171958;37,52170803;4,76999998;
18:47:11:064;-0,1200;-0,6203;-0,1556;56,35171958;37,52170803;4,76999998;
18:47:11:112;-0,1200;-0,6203;-0,1556;56,35171958;37,52170803;4,76999998;
18:47:11:114;0,1483;-0,4053;0,1593;56,35171958;37,52170803;4,76999998;
18:47:11:116;0,1483;-0,4053;0,1593;56,35171958;37,52170803;4,76999998;
18:47:11:173;0,1483;-0,4053;0,1593;56,35171958;37,52170803;4,76999998;
18:47:11:176;0,1300;-1,2169;-0,0453;56,35171958;37,52170803;4,76999998;
18:47:11:179;0,1300;-1,2169;-0,0453;56,35171958;37,52170803;4,76999998;
18:47:11:199;-0,0218;-1,1399;-0,0348;56,35171958;37,52170803;4,76999998;
18:47:11:203;-0,0218;-1,1399;-0,0348;56,35171958;37,52170803;4,76999998;
18:47:11:233;-0,0218;-1,1399;-0,0348;56,35171958;37,52170803;4,76999998;
18:47:11:295;-0,0218;-1,1399;-0,0348;56,35171958;37,52170803;4,76999998;
18:47:11:298;-0,0218;-1,1399;-0,0348;56,35171958;37,52170803;4,76999998;
18:47:11:300;0,0815;-0,4242;0,1368;56,35171958;37,52170803;4,76999998;
18:47:11:356;0,0815;-0,4242;0,1368;56,35171958;37,52170803;4,76999998;
18:47:11:361;0,0815;-0,4242;0,1368;56,35171958;37,52170803;4,76999998;
18:47:11:363;0,1614;-0,2900;0,2280;56,35171958;37,52170803;4,76999998;
18:47:11:416;0,1614;-0,2900;0,2280;56,35171958;37,52170803;4,76999998;
18:47:11:419;0,1614;-0,2900;0,2280;56,35171958;37,52170803;4,76999998;
18:47:11:421;0,0890;-0,2891;0,0195;56,35171958;37,52170803;4,76999998;
18:47:11:461;0,0890;-0,2891;0,0195;56,35171958;37,52170803;4,76999998;
18:47:11:465;0,0844;-0,2960;-0,0889;56,35171958;37,52170803;4,76999998;
18:47:11:517;0,0844;-0,2960;-0,0889;56,35171958;37,52170803;4,76999998;
18:47:11:520;0,0844;-0,2960;-0,0889;56,35171958;37,52170803;4,76999998;
18:47:11:522;0,1247;-0,2495;0,0421;56,35171958;37,52170803;4,76999998;
18:47:11:575;0,1247;-0,2495;0,0421;56,35171958;37,52170803;4,76999998;
18:47:11:579;0,0585;-0,2250;0,0913;56,35171958;37,52170803;4,76999998;
18:47:11:581;0,0585;-0,2250;0,0913;56,35171958;37,52170803;4,76999998;
18:47:11:636;0,0585;-0,2250;0,0913;56,35171958;37,52170803;4,76999998;
18:47:11:639;0,0724;-0,2178;0,0583;56,35171958;37,52170803;4,76999998;
18:47:11:642;0,0724;-0,2178;0,0583;56,35171958;37,52170803;4,76999998;
18:47:11:696;0,0724;-0,2178;0,0583;56,35171958;37,52170803;4,76999998;
18:47:11:699;0,0724;-0,2178;0,0583;56,35171958;37,52170803;4,76999998;
18:47:11:700;0,0221;-0,2398;0,1855;56,35171958;37,52170803;4,76999998;
18:47:11:722;0,0221;-0,2398;0,1855;56,35171958;37,52170803;4,76999998;
18:47:11:744;0,0221;-0,2398;0,1855;56,35171958;37,52170803;4,76999998;
18:47:11:746;0,0203;-0,2129;0,1649;56,35171958;37,52170803;4,76999998;
18:47:11:796;0,0666;-0,0964;0,0987;56,35171958;37,52170803;4,76999998;
18:47:11:799;0,0666;-0,0964;0,0987;56,35169092;37,52167321;4,15000010;
18:47:11:801;0,0666;-0,0964;0,0987;56,35169092;37,52167321;4,15000010;
18:47:11:855;0,0666;-0,0964;0,0987;56,35169092;37,52167321;4,15000010;
18:47:11:857;0,0666;-0,0964;0,0987;56,35169092;37,52167321;4,15000010;
18:47:11:859;-0,0083;-0,1031;-0,0957;56,35169092;37,52167321;4,15000010;
18:47:11:917;-0,0083;-0,1031;-0,0957;56,35169092;37,52167321;4,15000010;
18:47:11:919;-0,0083;-0,1031;-0,0957;56,35169092;37,52167321;4,15000010;
18:47:11:921;0,0802;-0,0059;0,0089;56,35169092;37,52167321;4,15000010;
18:47:11:977;0,0802;-0,0059;0,0089;56,35169092;37,52167321;4,15000010;
18:47:11:979;0,0802;-0,0059;0,0089;56,35169092;37,52167321;4,15000010;
18:47:11:981;0,0243;0,2423;-0,0641;56,35169092;37,52167321;4,15000010;
18:47:12:038;0,0243;0,2423;-0,0641;56,35169092;37,52167321;4,15000010;
18:47:12:041;0,0243;0,2423;-0,0641;56,35169092;37,52167321;4,15000010;
18:47:12:042;0,0500;0,3665;-0,0463;56,35169092;37,52167321;4,15000010;
18:47:12:099;0,0500;0,3665;-0,0463;56,35169092;37,52167321;4,15000010;
18:47:12:101;0,0500;0,3665;-0,0463;56,35169092;37,52167321;4,15000010;
18:47:12:103;0,0988;0,4078;0,0384;56,35169092;37,52167321;4,15000010;
18:47:12:159;0,0988;0,4078;0,0384;56,35169092;37,52167321;4,15000010;
18:47:12:161;0,0988;0,4078;0,0384;56,35169092;37,52167321;4,15000010;
18:47:12:163;0,0607;0,3973;-0,0587;56,35169092;37,52167321;4,15000010;
18:47:12:219;0,0607;0,3973;-0,0587;56,35169092;37,52167321;4,15000010;
18:47:12:222;0,0607;0,3973;-0,0587;56,35169092;37,52167321;4,15000010;
18:47:12:224;0,0148;0,3732;0,0902;56,35169092;37,52167321;4,15000010;
18:47:12:310;0,0148;0,3732;0,0902;56,35169092;37,52167321;4,15000010;
18:47:12:312;0,0148;0,3732;0,0902;56,35169092;37,52167321;4,15000010;
18:47:12:314;0,0794;0,2920;0,0194;56,35169092;37,52167321;4,15000010;
18:47:12:370;0,0794;0,2920;0,0194;56,35169092;37,52167321;4,15000010;
18:47:12:373;0,0794;0,2920;0,0194;56,35169092;37,52167321;4,15000010;
18:47:12:375;0,0250;0,3011;0,0544;56,35169092;37,52167321;4,15000010;
18:47:12:430;0,0250;0,3011;0,0544;56,35169092;37,52167321;4,15000010;
18:47:12:433;0,0250;0,3011;0,0544;56,35169092;37,52167321;4,15000010;
18:47:12:435;-0,0644;0,2771;-0,0545;56,35169092;37,52167321;4,15000010;
18:47:12:490;-0,0644;0,2771;-0,0545;56,35169092;37,52167321;4,15000010;
18:47:12:493;-0,0644;0,2771;-0,0545;56,35169092;37,52167321;4,15000010;
18:47:12:495;-0,0181;0,2526;-0,1869;56,35169092;37,52167321;4,15000010;
18:47:12:551;-0,0181;0,2526;-0,1869;56,35169092;37,52167321;4,15000010;
18:47:12:554;-0,0181;0,2526;-0,1869;56,35169092;37,52167321;4,15000010;
18:47:12:556;0,0542;0,2094;0,0355;56,35169092;37,52167321;4,15000010;
18:47:12:611;0,0542;0,2094;0,0355;56,35169092;37,52167321;4,15000010;
18:47:12:612;0,0542;0,2094;0,0355;56,35169092;37,52167321;4,15000010;
18:47:12:613;0,0796;0,1985;0,0182;56,35169092;37,52167321;4,15000010;
18:47:12:672;0,0796;0,1985;0,0182;56,35169092;37,52167321;4,15000010;
18:47:12:675;0,0197;0,1666;-0,0300;56,35169092;37,52167321;4,15000010;
18:47:12:678;0,0197;0,1666;-0,0300;56,35169092;37,52167321;4,15000010;
18:47:12:732;0,0197;0,1666;-0,0300;56,35169092;37,52167321;4,15000010;
18:47:12:734;-0,0327;0,1480;-0,0086;56,35169092;37,52167321;4,15000010;
18:47:12:737;-0,0327;0,1480;-0,0086;56,35169092;37,52167321;4,15000010;
18:47:12:756;-0,0298;0,1326;-0,0076;56,35169092;37,52167321;4,15000010;
18:47:12:760;-0,0298;0,1326;-0,0076;56,35169092;37,52167321;4,15000010;
18:47:12:766;-0,0298;0,1326;-0,0076;56,35169092;37,52167321;4,15000010;
18:47:12:821;-0,0298;0,1326;-0,0076;56,35169092;37,52167321;4,15000010;
18:47:12:823;-0,0298;0,1326;-0,0076;56,35166234;37,52164273;3,88000011;
18:47:12:824;0,0649;0,1541;0,0014;56,35166234;37,52164273;3,88000011;
18:47:12:881;0,0649;0,1541;0,0014;56,35166234;37,52164273;3,88000011;
18:47:12:883;0,0649;0,1541;0,0014;56,35166234;37,52164273;3,88000011;
18:47:12:884;0,0495;0,1189;0,0449;56,35166234;37,52164273;3,88000011;
18:47:12:943;0,0495;0,1189;0,0449;56,35166234;37,52164273;3,88000011;
18:47:12:945;0,0495;0,1189;0,0449;56,35166234;37,52164273;3,88000011;
18:47:12:947;-0,0071;0,0811;0,0765;56,35166234;37,52164273;3,88000011;
18:47:13:003;-0,0071;0,0811;0,0765;56,35166234;37,52164273;3,88000011;
18:47:13:006;-0,0284;0,1201;0,0798;56,35166234;37,52164273;3,88000011;
18:47:13:009;-0,0284;0,1201;0,0798;56,35166234;37,52164273;3,88000011;
18:47:13:064;-0,0284;0,1201;0,0798;56,35166234;37,52164273;3,88000011;
18:47:13:067;-0,0284;0,1201;0,0798;56,35166234;37,52164273;3,88000011;
18:47:13:069;0,0212;0,0895;-0,0603;56,35166234;37,52164273;3,88000011;
18:47:13:124;0,0212;0,0895;-0,0603;56,35166234;37,52164273;3,88000011;
18:47:13:127;0,0212;0,0895;-0,0603;56,35166234;37,52164273;3,88000011;
18:47:13:129;-0,0707;0,1111;-0,0430;56,35166234;37,52164273;3,88000011;
18:47:13:186;-0,0707;0,1111;-0,0430;56,35166234;37,52164273;3,88000011;
18:47:13:189;-0,0351;0,0868;-0,0626;56,35166234;37,52164273;3,88000011;
18:47:13:192;-0,0351;0,0868;-0,0626;56,35166234;37,52164273;3,88000011;
18:47:13:245;-0,0351;0,0868;-0,0626;56,35166234;37,52164273;3,88000011;
18:47:13:248;-0,0351;0,0868;-0,0626;56,35166234;37,52164273;3,88000011;
18:47:13:249;-0,0303;0,0966;-0,0704;56,35166234;37,52164273;3,88000011;
18:47:13:336;-0,0303;0,0966;-0,0704;56,35166234;37,52164273;3,88000011;
18:47:13:339;-0,0303;0,0966;-0,0704;56,35166234;37,52164273;3,88000011;
18:47:13:341;0,0691;0,0866;0,1151;56,35166234;37,52164273;3,88000011;
18:47:13:395;0,0691;0,0866;0,1151;56,35166234;37,52164273;3,88000011;
18:47:13:398;0,0691;0,0866;0,1151;56,35166234;37,52164273;3,88000011;
18:47:13:401;-0,0082;0,0678;-0,1516;56,35166234;37,52164273;3,88000011;
18:47:13:455;-0,0082;0,0678;-0,1516;56,35166234;37,52164273;3,88000011;
18:47:13:457;-0,0082;0,0678;-0,1516;56,35166234;37,52164273;3,88000011;
18:47:13:459;-0,0053;0,0588;0,1080;56,35166234;37,52164273;3,88000011;
18:47:13:515;-0,0053;0,0588;0,1080;56,35166234;37,52164273;3,88000011;
18:47:13:519;-0,0285;0,0465;0,0706;56,35166234;37,52164273;3,88000011;
18:47:13:522;-0,0285;0,0465;0,0706;56,35166234;37,52164273;3,88000011;
18:47:13:575;-0,0285;0,0465;0,0706;56,35166234;37,52164273;3,88000011;
18:47:13:578;-0,0285;0,0465;0,0706;56,35166234;37,52164273;3,88000011;
18:47:13:580;0,0109;0,0166;-0,0304;56,35166234;37,52164273;3,88000011;
18:47:13:637;0,0109;0,0166;-0,0304;56,35166234;37,52164273;3,88000011;
18:47:13:639;0,0109;0,0166;-0,0304;56,35166234;37,52164273;3,88000011;
18:47:13:641;-0,0101;0,0116;-0,0312;56,35166234;37,52164273;3,88000011;
18:47:13:696;-0,0101;0,0116;-0,0312;56,35166234;37,52164273;3,88000011;
18:47:13:699;-0,0101;0,0116;-0,0312;56,35166234;37,52164273;3,88000011;
18:47:13:701;0,0077;0,0434;0,0332;56,35166234;37,52164273;3,88000011;
18:47:13:757;0,0077;0,0434;0,0332;56,35166234;37,52164273;3,88000011;
18:47:13:760;0,0077;0,0434;0,0332;56,35166234;37,52164273;3,88000011;
18:47:13:762;0,0033;0,0038;0,0227;56,35166234;37,52164273;3,88000011;
18:47:13:777;0,0033;0,0038;0,0227;56,35166234;37,52164273;3,88000011;
18:47:13:779;0,0033;0,0038;0,0227;56,35166234;37,52164273;3,88000011;
18:47:13:780;0,0005;0,0025;0,0202;56,35166234;37,52164273;3,88000011;
18:47:13:847;0,0005;0,0025;0,0202;56,35166234;37,52164273;3,88000011;
18:47:13:849;0,0005;0,0025;0,0202;56,35165052;37,52163212;3,50999999;
18:47:13:851;-0,0840;0,0135;-0,0087;56,35165052;37,52163212;3,50999999;
18:47:13:908;-0,0840;0,0135;-0,0087;56,35165052;37,52163212;3,50999999;
18:47:13:911;-0,0803;0,0215;-0,0224;56,35165052;37,52163212;3,50999999;
18:47:13:918;-0,0803;0,0215;-0,0224;56,35165052;37,52163212;3,50999999;
18:47:13:967;-0,0803;0,0215;-0,0224;56,35165052;37,52163212;3,50999999;
18:47:13:969;-0,0803;0,0215;-0,0224;56,35165052;37,52163212;3,50999999;
18:47:13:970;0,0837;0,0077;-0,1306;56,35165052;37,52163212;3,50999999;
18:47:14:028;0,0837;0,0077;-0,1306;56,35165052;37,52163212;3,50999999;
18:47:14:031;0,0837;0,0077;-0,1306;56,35165052;37,52163212;3,50999999;
18:47:14:033;0,0869;0,0027;0,1311;56,35165052;37,52163212;3,50999999;
18:47:14:090;-0,0335;0,0373;0,0981;56,35165052;37,52163212;3,50999999;
18:47:14:093;-0,0335;0,0373;0,0981;56,35165052;37,52163212;3,50999999;
18:47:14:095;-0,0335;0,0373;0,0981;56,35165052;37,52163212;3,50999999;
18:47:14:150;-0,0335;0,0373;0,0981;56,35165052;37,52163212;3,50999999;
18:47:14:152;-0,0335;0,0373;0,0981;56,35165052;37,52163212;3,50999999;
18:47:14:154;-0,0247;0,0270;-0,1780;56,35165052;37,52163212;3,50999999;
18:47:14:210;-0,0247;0,0270;-0,1780;56,35165052;37,52163212;3,50999999;
18:47:14:213;0,0045;0,0296;-0,1375;56,35165052;37,52163212;3,50999999;
18:47:14:215;0,0045;0,0296;-0,1375;56,35165052;37,52163212;3,50999999;
18:47:14:270;0,0045;0,0296;-0,1375;56,35165052;37,52163212;3,50999999;
18:47:14:273;0,0045;0,0296;-0,1375;56,35165052;37,52163212;3,50999999;
18:47:14:275;0,0035;0,0335;-0,0822;56,35165052;37,52163212;3,50999999;
18:47:14:363;0,0035;0,0335;-0,0822;56,35165052;37,52163212;3,50999999;
18:47:14:368;0,0035;0,0335;-0,0822;56,35165052;37,52163212;3,50999999;
18:47:14:370;0,0062;-0,0128;0,1534;56,35165052;37,52163212;3,50999999;
18:47:14:419;0,0062;-0,0128;0,1534;56,35165052;37,52163212;3,50999999;
18:47:14:421;0,0062;-0,0128;0,1534;56,35165052;37,52163212;3,50999999;
18:47:14:422;-0,1013;0,0052;0,1494;56,35165052;37,52163212;3,50999999;
18:47:14:481;-0,1013;0,0052;0,1494;56,35165052;37,52163212;3,50999999;
18:47:14:484;-0,1013;0,0052;0,1494;56,35165052;37,52163212;3,50999999;
18:47:14:486;-0,0432;0,0176;-0,1837;56,35165052;37,52163212;3,50999999;
18:47:14:541;-0,0432;0,0176;-0,1837;56,35165052;37,52163212;3,50999999;
18:47:14:545;-0,0432;0,0176;-0,1837;56,35165052;37,52163212;3,50999999;
18:47:14:547;0,0419;-0,0020;-0,0413;56,35165052;37,52163212;3,50999999;
18:47:14:602;0,0419;-0,0020;-0,0413;56,35165052;37,52163212;3,50999999;
18:47:14:605;0,0419;-0,0020;-0,0413;56,35165052;37,52163212;3,50999999;
18:47:14:607;0,0424;0,0161;-0,0163;56,35165052;37,52163212;3,50999999;
18:47:14:662;0,0424;0,0161;-0,0163;56,35165052;37,52163212;3,50999999;
18:47:14:664;0,0424;0,0161;-0,0163;56,35165052;37,52163212;3,50999999;
18:47:14:667;0,1616;-0,0158;-0,0382;56,35165052;37,52163212;3,50999999;
18:47:14:723;0,1616;-0,0158;-0,0382;56,35165052;37,52163212;3,50999999;
18:47:14:726;-0,0335;-0,0119;0,1564;56,35165052;37,52163212;3,50999999;
18:47:14:729;-0,0335;-0,0119;0,1564;56,35165052;37,52163212;3,50999999;
18:47:14:783;-0,0335;-0,0119;0,1564;56,35165052;37,52163212;3,50999999;
18:47:14:786;-0,0335;-0,0119;0,1564;56,35165052;37,52163212;3,50999999;
18:47:14:788;-0,0445;-0,0151;-0,0898;56,35165052;37,52163212;3,50999999;
18:47:14:812;-0,0445;-0,0151;-0,0898;56,35165052;37,52163212;3,50999999;
18:47:14:818;-0,0445;-0,0151;-0,0898;56,35162193;37,52160862;3,70000005;
18:47:14:820;-0,0383;-0,0157;-0,0800;56,35162193;37,52160862;3,70000005;
18:47:14:862;-0,0383;-0,0157;-0,0800;56,35162193;37,52160862;3,70000005;
18:47:14:863;-0,0286;-0,1180;-0,0928;56,35162193;37,52160862;3,70000005;
18:47:14:865;-0,0286;-0,1180;-0,0928;56,35162193;37,52160862;3,70000005;
18:47:14:923;-0,0286;-0,1180;-0,0928;56,35162193;37,52160862;3,70000005;
18:47:14:927;-0,0286;-0,1180;-0,0928;56,35162193;37,52160862;3,70000005;
18:47:14:929;0,0817;-0,1333;0,1349;56,35162193;37,52160862;3,70000005;
18:47:14:984;0,0817;-0,1333;0,1349;56,35162193;37,52160862;3,70000005;
18:47:14:987;0,0817;-0,1333;0,1349;56,35162193;37,52160862;3,70000005;
18:47:14:989;-0,0142;-0,1665;0,0544;56,35162193;37,52160862;3,70000005;
18:47:15:044;-0,0142;-0,1665;0,0544;56,35162193;37,52160862;3,70000005;
18:47:15:047;-0,0142;-0,1665;0,0544;56,35162193;37,52160862;3,70000005;
18:47:15:049;0,0573;-0,1987;-0,0290;56,35162193;37,52160862;3,70000005;
18:47:15:123;0,0573;-0,1987;-0,0290;56,35162193;37,52160862;3,70000005;
18:47:15:126;0,0573;-0,1987;-0,0290;56,35162193;37,52160862;3,70000005;
18:47:15:129;-0,0762;-0,2329;0,0754;56,35162193;37,52160862;3,70000005;
18:47:15:185;-0,0762;-0,2329;0,0754;56,35162193;37,52160862;3,70000005;
18:47:15:188;-0,0762;-0,2329;0,0754;56,35162193;37,52160862;3,70000005;
18:47:15:191;-0,0119;-0,2348;-0,0376;56,35162193;37,52160862;3,70000005;
18:47:15:245;-0,0119;-0,2348;-0,0376;56,35162193;37,52160862;3,70000005;
18:47:15:248;-0,0119;-0,2348;-0,0376;56,35162193;37,52160862;3,70000005;
18:47:15:249;0,0863;-0,2805;-0,0498;56,35162193;37,52160862;3,70000005;
18:47:15:306;0,0863;-0,2805;-0,0498;56,35162193;37,52160862;3,70000005;
18:47:15:308;0,0863;-0,2805;-0,0498;56,35162193;37,52160862;3,70000005;
18:47:15:309;-0,0071;-0,4906;-0,0650;56,35162193;37,52160862;3,70000005;
18:47:15:385;-0,0071;-0,4906;-0,0650;56,35162193;37,52160862;3,70000005;
18:47:15:388;-0,0071;-0,4906;-0,0650;56,35162193;37,52160862;3,70000005;
18:47:15:389;0,0440;-0,8225;0,1029;56,35162193;37,52160862;3,70000005;
18:47:15:446;0,0440;-0,8225;0,1029;56,35162193;37,52160862;3,70000005;
18:47:15:448;0,0440;-0,8225;0,1029;56,35162193;37,52160862;3,70000005;
18:47:15:450;-0,0540;-0,9898;0,1515;56,35162193;37,52160862;3,70000005;
18:47:15:505;-0,0540;-0,9898;0,1515;56,35162193;37,52160862;3,70000005;
18:47:15:507;-0,0540;-0,9898;0,1515;56,35162193;37,52160862;3,70000005;
18:47:15:508;-0,0198;-1,1032;-0,0861;56,35162193;37,52160862;3,70000005;
18:47:15:566;-0,0198;-1,1032;-0,0861;56,35162193;37,52160862;3,70000005;
18:47:15:568;-0,0198;-1,1032;-0,0861;56,35162193;37,52160862;3,70000005;
18:47:15:570;0,0545;-1,1168;-0,0744;56,35162193;37,52160862;3,70000005;
18:47:15:588;0,0545;-1,1168;-0,0744;56,35162193;37,52160862;3,70000005;
18:47:15:591;0,0545;-1,1168;-0,0744;56,35162193;37,52160862;3,70000005;
18:47:15:592;0,0582;-1,0959;-0,0733;56,35162193;37,52160862;3,70000005;
18:47:15:647;0,0582;-1,0959;-0,0733;56,35162193;37,52160862;3,70000005;
18:47:15:650;0,0582;-1,0959;-0,0733;56,35162193;37,52160862;3,70000005;
18:47:15:653;0,0681;-1,1236;0,1637;56,35162193;37,52160862;3,70000005;
18:47:15:706;0,0681;-1,1236;0,1637;56,35162193;37,52160862;3,70000005;
18:47:15:708;0,0681;-1,1236;0,1637;56,35162193;37,52160862;3,70000005;
18:47:15:710;-0,0917;-1,1599;0,0982;56,35162193;37,52160862;3,70000005;
18:47:15:780;-0,0263;-1,1783;0,0560;56,35162193;37,52160862;3,70000005;
18:47:15:782;-0,0263;-1,1783;0,0560;56,35162193;37,52160862;3,70000005;
18:47:15:784;-0,0263;-1,1783;0,0560;56,35162193;37,52160862;3,70000005;
18:47:15:819;-0,0263;-1,1783;0,0560;56,35162193;37,52160862;3,70000005;
18:47:15:851;-0,0263;-1,1783;0,0560;56,35159679;37,52158377;3,44000006;
18:47:15:852;0,0469;-1,1351;0,0435;56,35159679;37,52158377;3,44000006;
18:47:15:908;0,0469;-1,1351;0,0435;56,35159679;37,52158377;3,44000006;
18:47:15:911;0,0469;-1,1351;0,0435;56,35159679;37,52158377;3,44000006;
18:47:15:913;-0,0037;-1,0004;-0,0176;56,35159679;37,52158377;3,44000006;
18:47:15:968;-0,0037;-1,0004;-0,0176;56,35159679;37,52158377;3,44000006;
18:47:15:971;-0,0037;-1,0004;-0,0176;56,35159679;37,52158377;3,44000006;
18:47:15:972;0,0803;-0,9013;0,0269;56,35159679;37,52158377;3,44000006;
18:47:16:029;0,0803;-0,9013;0,0269;56,35159679;37,52158377;3,44000006;
18:47:16:031;-0,0215;-0,8075;-0,0043;56,35159679;37,52158377;3,44000006;
18:47:16:034;-0,0215;-0,8075;-0,0043;56,35159679;37,52158377;3,44000006;
18:47:16:089;-0,0215;-0,8075;-0,0043;56,35159679;37,52158377;3,44000006;
18:47:16:091;-0,0215;-0,8075;-0,0043;56,35159679;37,52158377;3,44000006;
18:47:16:093;-0,0302;-0,7798;0,0948;56,35159679;37,52158377;3,44000006;
18:47:16:169;-0,0302;-0,7798;0,0948;56,35159679;37,52158377;3,44000006;
18:47:16:171;-0,0627;-0,7259;0,0416;56,35159679;37,52158377;3,44000006;
18:47:16:174;-0,0627;-0,7259;0,0416;56,35159679;37,52158377;3,44000006;
18:47:16:230;-0,0627;-0,7259;0,0416;56,35159679;37,52158377;3,44000006;
18:47:16:233;-0,0627;-0,7259;0,0416;56,35159679;37,52158377;3,44000006;
18:47:16:235;-0,0205;-0,5904;-0,0267;56,35159679;37,52158377;3,44000006;
18:47:16:291;-0,0205;-0,5904;-0,0267;56,35159679;37,52158377;3,44000006;
18:47:16:294;-0,0205;-0,5904;-0,0267;56,35159679;37,52158377;3,44000006;
18:47:16:296;0,0112;-0,5743;0,0068;56,35159679;37,52158377;3,44000006;
18:47:16:330;0,0112;-0,5743;0,0068;56,35159679;37,52158377;3,44000006;
18:47:16:332;0,0112;-0,5743;0,0068;56,35159679;37,52158377;3,44000006;
18:47:16:334;0,0085;-0,5077;0,0065;56,35159679;37,52158377;3,44000006;
18:47:16:375;0,0085;-0,5077;0,0065;56,35159679;37,52158377;3,44000006;
18:47:16:379;0,0085;-0,5077;0,0065;56,35159679;37,52158377;3,44000006;
18:47:16:382;0,0305;-0,4187;0,0227;56,35159679;37,52158377;3,44000006;
18:47:16:431;0,0305;-0,4187;0,0227;56,35159679;37,52158377;3,44000006;
18:47:16:434;0,0305;-0,4187;0,0227;56,35159679;37,52158377;3,44000006;
18:47:16:435;-0,0366;-0,3654;-0,0102;56,35159679;37,52158377;3,44000006;
18:47:16:491;-0,0366;-0,3654;-0,0102;56,35159679;37,52158377;3,44000006;
18:47:16:494;-0,0366;-0,3654;-0,0102;56,35159679;37,52158377;3,44000006;
18:47:16:496;0,0227;-0,2942;0,0767;56,35159679;37,52158377;3,44000006;
18:47:16:551;0,0227;-0,2942;0,0767;56,35159679;37,52158377;3,44000006;
18:47:16:554;0,0227;-0,2942;0,0767;56,35159679;37,52158377;3,44000006;
18:47:16:556;-0,0206;-0,1423;-0,0816;56,35159679;37,52158377;3,44000006;
18:47:16:612;-0,0206;-0,1423;-0,0816;56,35159679;37,52158377;3,44000006;
18:47:16:614;-0,0206;-0,1423;-0,0816;56,35159679;37,52158377;3,44000006;
18:47:16:616;0,0226;-0,0157;0,0073;56,35159679;37,52158377;3,44000006;
18:47:16:692;0,0226;-0,0157;0,0073;56,35159679;37,52158377;3,44000006;
18:47:16:695;0,0226;-0,0157;0,0073;56,35159679;37,52158377;3,44000006;
18:47:16:697;0,0196;-0,0207;0,0989;56,35159679;37,52158377;3,44000006;
18:47:16:753;0,0196;-0,0207;0,0989;56,35159679;37,52158377;3,44000006;
18:47:16:756;0,0196;-0,0207;0,0989;56,35159679;37,52158377;3,44000006;
18:47:16:758;-0,0107;-0,0562;0,0281;56,35159679;37,52158377;3,44000006;
18:47:16:812;-0,0107;-0,0562;0,0281;56,35159679;37,52158377;3,44000006;
18:47:16:815;-0,0107;-0,0562;0,0281;56,35158213;37,52157134;2,18000007;
18:47:16:817;0,0471;-0,0306;-0,0269;56,35158213;37,52157134;2,18000007;
18:47:16:893;0,0471;-0,0306;-0,0269;56,35158213;37,52157134;2,18000007;
18:47:16:896;0,0471;-0,0306;-0,0269;56,35158213;37,52157134;2,18000007;
18:47:16:897;-0,0586;0,0026;-0,0302;56,35158213;37,52157134;2,18000007;
18:47:16:953;-0,0586;0,0026;-0,0302;56,35158213;37,52157134;2,18000007;
18:47:16:955;-0,0586;0,0026;-0,0302;56,35158213;37,52157134;2,18000007;
18:47:16:956;0,0215;0,0060;0,0399;56,35158213;37,52157134;2,18000007;
18:47:17:013;0,0215;0,0060;0,0399;56,35158213;37,52157134;2,18000007;
18:47:17:014;0,0215;0,0060;0,0399;56,35158213;37,52157134;2,18000007;
18:47:17:016;-0,0083;-0,0057;0,0090;56,35158213;37,52157134;2,18000007;
18:47:17:073;-0,0083;-0,0057;0,0090;56,35158213;37,52157134;2,18000007;
18:47:17:075;-0,0083;-0,0057;0,0090;56,35158213;37,52157134;2,18000007;
18:47:17:076;0,0229;0,0289;0,0120;56,35158213;37,52157134;2,18000007;
18:47:17:133;0,0229;0,0289;0,0120;56,35158213;37,52157134;2,18000007;
18:47:17:135;0,0229;0,0289;0,0120;56,35158213;37,52157134;2,18000007;
18:47:17:137;0,0370;0,0054;-0,0222;56,35158213;37,52157134;2,18000007;
18:47:17:154;0,0370;0,0054;-0,0222;56,35158213;37,52157134;2,18000007;
18:47:17:155;0,0370;0,0054;-0,0222;56,35158213;37,52157134;2,18000007;
18:47:17:156;0,0324;0,0032;-0,0199;56,35158213;37,52157134;2,18000007;
18:47:17:214;0,0324;0,0032;-0,0199;56,35158213;37,52157134;2,18000007;
18:47:17:216;0,0324;0,0032;-0,0199;56,35158213;37,52157134;2,18000007;
18:47:17:218;-0,0443;0,1322;-0,0215;56,35158213;37,52157134;2,18000007;
18:47:17:274;-0,0443;0,1322;-0,0215;56,35158213;37,52157134;2,18000007;
18:47:17:276;-0,0443;0,1322;-0,0215;56,35158213;37,52157134;2,18000007;
18:47:17:278;-0,0471;0,2314;0,0096;56,35158213;37,52157134;2,18000007;
18:47:17:335;-0,0471;0,2314;0,0096;56,35158213;37,52157134;2,18000007;
18:47:17:336;-0,0471;0,2314;0,0096;56,35158213;37,52157134;2,18000007;
18:47:17:338;0,0004;0,2572;0,0322;56,35158213;37,52157134;2,18000007;
18:47:17:405;0,0004;0,2572;0,0322;56,35158213;37,52157134;2,18000007;
18:47:17:407;0,0004;0,2572;0,0322;56,35158213;37,52157134;2,18000007;
18:47:17:408;0,0348;0,3114;-0,0380;56,35158213;37,52157134;2,18000007;
18:47:17:465;0,0348;0,3114;-0,0380;56,35158213;37,52157134;2,18000007;
18:47:17:466;0,0348;0,3114;-0,0380;56,35158213;37,52157134;2,18000007;
18:47:17:468;0,0095;0,3689;0,0017;56,35158213;37,52157134;2,18000007;
18:47:17:528;0,0095;0,3689;0,0017;56,35158213;37,52157134;2,18000007;
18:47:17:531;0,0095;0,3689;0,0017;56,35158213;37,52157134;2,18000007;
18:47:17:532;0,0187;0,3969;0,0023;56,35158213;37,52157134;2,18000007;
18:47:17:588;0,0187;0,3969;0,0023;56,35158213;37,52157134;2,18000007;
18:47:17:590;0,0187;0,3969;0,0023;56,35158213;37,52157134;2,18000007;
18:47:17:592;0,0102;0,3567;-0,0154;56,35158213;37,52157134;2,18000007;
18:47:17:648;0,0102;0,3567;-0,0154;56,35158213;37,52157134;2,18000007;
18:47:17:651;0,0102;0,3567;-0,0154;56,35158213;37,52157134;2,18000007;
18:47:17:655;-0,0031;0,3942;-0,0182;56,35158213;37,52157134;2,18000007;
18:47:17:728;-0,0031;0,3942;-0,0182;56,35158213;37,52157134;2,18000007;
18:47:17:730;-0,0031;0,3942;-0,0182;56,35158213;37,52157134;2,18000007;
18:47:17:732;-0,0034;0,6486;0,0163;56,35158213;37,52157134;2,18000007;
18:47:17:787;-0,0034;0,6486;0,0163;56,35158213;37,52157134;2,18000007;
18:47:17:789;-0,0034;0,6486;0,0163;56,35158213;37,52157134;2,18000007;
18:47:17:790;0,0527;0,6898;0,0110;56,35158213;37,52157134;2,18000007;
18:47:17:848;0,0527;0,6898;0,0110;56,35158213;37,52157134;2,18000007;
18:47:17:849;0,0527;0,6898;0,0110;56,35158213;37,52157134;2,18000007;
18:47:17:851;0,0601;0,7136;-0,0156;56,35158213;37,52157134;2,18000007;
18:47:17:918;0,0601;0,7136;-0,0156;56,35158213;37,52157134;2,18000007;
18:47:17:921;0,0601;0,7136;-0,0156;56,35158213;37,52157134;2,18000007;
18:47:17:923;0,0084;0,6764;-0,0176;56,35158213;37,52157134;2,18000007;
18:47:17:930;0,0084;0,6764;-0,0176;56,35158213;37,52157134;2,18000007;
18:47:17:989;0,0084;0,6764;-0,0176;56,35158213;37,52157134;2,18000007;
18:47:17:992;0,0084;0,6764;-0,0176;56,35158213;37,52157134;2,18000007;
18:47:17:994;-0,0027;0,5888;-0,0352;56,35158213;37,52157134;2,18000007;
18:47:18:050;-0,0027;0,5888;-0,0352;56,35158213;37,52157134;2,18000007;
18:47:18:052;-0,0027;0,5888;-0,0352;56,35158213;37,52157134;2,18000007;
18:47:18:054;-0,0057;0,4877;-0,0424;56,35158213;37,52157134;2,18000007;
18:47:18:109;-0,0057;0,4877;-0,0424;56,35158213;37,52157134;2,18000007;
18:47:18:111;-0,0057;0,4877;-0,0424;56,35158213;37,52157134;2,18000007;
18:47:18:112;0,0023;0,4570;-0,0167;56,35158213;37,52157134;2,18000007;
18:47:18:171;0,0023;0,4570;-0,0167;56,35158213;37,52157134;2,18000007;
18:47:18:175;0,0023;0,4570;-0,0167;56,35158213;37,52157134;2,18000007;
18:47:18:176;-0,0076;0,4544;0,0298;56,35158213;37,52157134;2,18000007;
18:47:18:191;-0,0076;0,4544;0,0298;56,35158213;37,52157134;2,18000007;
18:47:18:195;-0,0071;0,4039;0,0265;56,35158213;37,52157134;2,18000007;
18:47:18:251;-0,0071;0,4039;0,0265;56,35158213;37,52157134;2,18000007;
18:47:18:255;-0,0071;0,4039;0,0265;56,35158213;37,52157134;2,18000007;
18:47:18:257;0,0203;0,3199;0,0413;56,35158213;37,52157134;2,18000007;
18:47:18:311;0,0203;0,3199;0,0413;56,35158213;37,52157134;2,18000007;
18:47:18:313;0,0203;0,3199;0,0413;56,35158213;37,52157134;2,18000007;
18:47:18:315;0,0441;0,2918;-0,0350;56,35158213;37,52157134;2,18000007;
18:47:18:372;-0,0123;0,2972;-0,0376;56,35158213;37,52157134;2,18000007;
18:47:18:375;-0,0123;0,2972;-0,0376;56,35158213;37,52157134;2,18000007;
18:47:18:377;-0,0123;0,2972;-0,0376;56,35158213;37,52157134;2,18000007;
18:47:18:430;-0,0123;0,2972;-0,0376;56,35158213;37,52157134;2,18000007;
18:47:18:433;-0,0123;0,2972;-0,0376;56,35158213;37,52157134;2,18000007;
18:47:18:434;0,0155;0,3798;0,0449;56,35158213;37,52157134;2,18000007;
18:47:18:512;0,0155;0,3798;0,0449;56,35158213;37,52157134;2,18000007;
18:47:18:513;0,0155;0,3798;0,0449;56,35158213;37,52157134;2,18000007;
18:47:18:515;-0,0156;0,6848;-0,0028;56,35158213;37,52157134;2,18000007;
18:47:18:574;0,0282;0,5323;0,0306;56,35158213;37,52157134;2,18000007;
18:47:18:578;0,0282;0,5323;0,0306;56,35158213;37,52157134;2,18000007;
18:47:18:580;0,0282;0,5323;0,0306;56,35158213;37,52157134;2,18000007;
18:47:18:635;0,0282;0,5323;0,0306;56,35158213;37,52157134;2,18000007;
18:47:18:636;0,0282;0,5323;0,0306;56,35158213;37,52157134;2,18000007;
18:47:18:637;0,0247;0,4631;-0,1539;56,35158213;37,52157134;2,18000007;
18:47:18:694;0,0247;0,4631;-0,1539;56,35158213;37,52157134;2,18000007;
18:47:18:696;0,0247;0,4631;-0,1539;56,35158213;37,52157134;2,18000007;
18:47:18:697;-0,0069;0,4342;-0,0414;56,35158213;37,52157134;2,18000007;
18:47:18:717;-0,0069;0,4342;-0,0414;56,35158213;37,52157134;2,18000007;
18:47:18:771;-0,0069;0,4342;-0,0414;56,35158213;37,52157134;2,18000007;
18:47:18:773;-0,0069;0,4342;-0,0414;56,35158213;37,52157134;2,18000007;
18:47:18:773;0,0091;0,4471;0,0820;56,35158213;37,52157134;2,18000007;
18:47:18:832;0,0091;0,4471;0,0820;56,35158213;37,52157134;2,18000007;
18:47:18:833;0,0091;0,4471;0,0820;56,35159264;37,52156582;0,00000000;
18:47:18:835;-0,0325;0,4193;-0,0513;56,35159264;37,52156582;0,00000000;
18:47:18:893;-0,0325;0,4193;-0,0513;56,35159264;37,52156582;0,00000000;
18:47:18:895;-0,0325;0,4193;-0,0513;56,35159264;37,52156582;0,00000000;
18:47:18:896;0,0087;0,3295;0,0214;56,35159264;37,52156582;0,00000000;
18:47:18:953;0,0087;0,3295;0,0214;56,35159264;37,52156582;0,00000000;
18:47:18:955;0,0382;0,2714;-0,0433;56,35159264;37,52156582;0,00000000;
18:47:18:958;0,0382;0,2714;-0,0433;56,35159264;37,52156582;0,00000000;
18:47:18:977;0,0382;0,2714;-0,0433;56,35159264;37,52156582;0,00000000;
18:47:18:979;0,0343;0,2410;-0,0385;56,35159264;37,52156582;0,00000000;
18:47:19:035;0,0343;0,2410;-0,0385;56,35159264;37,52156582;0,00000000;
18:47:19:036;0,0343;0,2410;-0,0385;56,35159264;37,52156582;0,00000000;
18:47:19:038;-0,0173;0,2097;-0,0491;56,35159264;37,52156582;0,00000000;
18:47:19:096;-0,0173;0,2097;-0,0491;56,35159264;37,52156582;0,00000000;
18:47:19:098;0,0208;0,2260;0,1025;56,35159264;37,52156582;0,00000000;
18:47:19:101;0,0208;0,2260;0,1025;56,35159264;37,52156582;0,00000000;
18:47:19:156;0,0208;0,2260;0,1025;56,35159264;37,52156582;0,00000000;
18:47:19:158;0,0208;0,2260;0,1025;56,35159264;37,52156582;0,00000000;
18:47:19:161;-0,0006;0,2356;-0,0210;56,35159264;37,52156582;0,00000000;
18:47:19:217;-0,0006;0,2356;-0,0210;56,35159264;37,52156582;0,00000000;
18:47:19:220;-0,0211;0,1533;-0,0640;56,35159264;37,52156582;0,00000000;
18:47:19:224;-0,0211;0,1533;-0,0640;56,35159264;37,52156582;0,00000000;
18:47:19:295;-0,0211;0,1533;-0,0640;56,35159264;37,52156582;0,00000000;
18:47:19:297;-0,0211;0,1533;-0,0640;56,35159264;37,52156582;0,00000000;
18:47:19:299;0,0105;0,1486;-0,0062;56,35159264;37,52156582;0,00000000;
18:47:19:355;0,0105;0,1486;-0,0062;56,35159264;37,52156582;0,00000000;
18:47:19:357;0,0105;0,1486;-0,0062;56,35159264;37,52156582;0,00000000;
18:47:19:358;-0,0093;0,1321;-0,0055;56,35159264;37,52156582;0,00000000;
18:47:19:416;-0,0093;0,1321;-0,0055;56,35159264;37,52156582;0,00000000;
18:47:19:419;-0,0093;0,1321;-0,0055;56,35159264;37,52156582;0,00000000;
18:47:19:421;0,0318;0,1177;0,0497;56,35159264;37,52156582;0,00000000;
18:47:19:477;0,0318;0,1177;0,0497;56,35159264;37,52156582;0,00000000;
18:47:19:479;0,0318;0,1177;0,0497;56,35159264;37,52156582;0,00000000;
18:47:19:481;0,0223;0,1114;-0,0244;56,35159264;37,52156582;0,00000000;
18:47:19:506;0,0223;0,1114;-0,0244;56,35159264;37,52156582;0,00000000;
18:47:19:557;0,0223;0,1114;-0,0244;56,35159264;37,52156582;0,00000000;
18:47:19:559;0,0223;0,1114;-0,0244;56,35159264;37,52156582;0,00000000;
18:47:19:561;-0,0225;0,0712;0,0147;56,35159264;37,52156582;0,00000000;
18:47:19:618;-0,0059;0,0664;0,0279;56,35159264;37,52156582;0,00000000;
18:47:19:621;-0,0059;0,0664;0,0279;56,35159264;37,52156582;0,00000000;
18:47:19:624;-0,0059;0,0664;0,0279;56,35159264;37,52156582;0,00000000;
18:47:19:678;-0,0059;0,0664;0,0279;56,35159264;37,52156582;0,00000000;
18:47:19:681;0,0040;0,0953;-0,0142;56,35159264;37,52156582;0,00000000;
18:47:19:684;0,0040;0,0953;-0,0142;56,35159264;37,52156582;0,00000000;
18:47:19:738;0,0040;0,0953;-0,0142;56,35159264;37,52156582;0,00000000;
18:47:19:740;0,0040;0,0953;-0,0142;56,35159264;37,52156582;0,00000000;
18:47:19:742;-0,0073;0,0738;-0,0513;56,35159264;37,52156582;0,00000000;
18:47:19:761;-0,0083;0,0668;-0,0455;56,35159264;37,52156582;0,00000000;
18:47:19:763;-0,0083;0,0668;-0,0455;56,35159264;37,52156582;0,00000000;
18:47:19:817;-0,0083;0,0668;-0,0455;56,35159264;37,52156582;0,00000000;
18:47:19:819;-0,0083;0,0668;-0,0455;56,35159264;37,52156582;0,00000000;
18:47:19:820;0,0029;0,0570;0,0413;56,35159264;37,52156582;0,00000000;
18:47:19:879;0,0029;0,0570;0,0413;56,35159264;37,52156582;0,00000000;
18:47:19:882;0,0029;0,0570;0,0413;56,35159264;37,52156582;0,00000000;
18:47:19:884;0,0054;0,0419;0,0039;56,35159264;37,52156582;0,00000000;
18:47:19:940;0,0054;0,0419;0,0039;56,35159264;37,52156582;0,00000000;
18:47:19:941;0,0054;0,0419;0,0039;56,35159264;37,52156582;0,00000000;
18:47:19:943;-0,0215;0,0277;-0,0253;56,35159264;37,52156582;0,00000000;
18:47:20:000;0,0032;0,0277;0,0478;56,35159264;37,52156582;0,00000000;
18:47:20:002;0,0032;0,0277;0,0478;56,35159264;37,52156582;0,00000000;
18:47:20:004;0,0032;0,0277;0,0478;56,35159264;37,52156582;0,00000000;
18:47:20:080;0,0032;0,0277;0,0478;56,35159264;37,52156582;0,00000000;
18:47:20:083;-0,0140;0,0368;-0,0273;56,35159264;37,52156582;0,00000000;
18:47:20:086;-0,0140;0,0368;-0,0273;56,35159264;37,52156582;0,00000000;
18:47:20:141;-0,0140;0,0368;-0,0273;56,35159264;37,52156582;0,00000000;
18:47:20:143;-0,0140;0,0368;-0,0273;56,35159264;37,52156582;0,00000000;
18:47:20:145;0,0069;0,0197;0,0672;56,35159264;37,52156582;0,00000000;
18:47:20:201;0,0069;0,0197;0,0672;56,35159264;37,52156582;0,00000000;
18:47:20:204;0,0069;0,0197;0,0672;56,35159264;37,52156582;0,00000000;
18:47:20:206;0,0165;0,0250;-0,0055;56,35159264;37,52156582;0,00000000;
18:47:20:261;0,0165;0,0250;-0,0055;56,35159264;37,52156582;0,00000000;
18:47:20:264;0,0165;0,0250;-0,0055;56,35159264;37,52156582;0,00000000;
18:47:20:266;-0,0204;0,0320;-0,0499;56,35159264;37,52156582;0,00000000;
18:47:20:291;-0,0204;0,0320;-0,0499;56,35159264;37,52156582;0,00000000;
18:47:20:342;-0,0204;0,0320;-0,0499;56,35159264;37,52156582;0,00000000;
18:47:20:345;-0,0204;0,0320;-0,0499;56,35159264;37,52156582;0,00000000;
18:47:20:347;0,0022;0,0207;0,0475;56,35159264;37,52156582;0,00000000;
18:47:20:402;0,0022;0,0207;0,0475;56,35159264;37,52156582;0,00000000;
18:47:20:405;0,0022;0,0207;0,0475;56,35159264;37,52156582;0,00000000;
18:47:20:407;0,0354;0,0258;-0,0031;56,35159264;37,52156582;0,00000000;
18:47:20:462;0,0354;0,0258;-0,0031;56,35159264;37,52156582;0,00000000;
18:47:20:465;0,0354;0,0258;-0,0031;56,35159264;37,52156582;0,00000000;
18:47:20:467;-0,0107;0,0141;-0,0507;56,35159264;37,52156582;0,00000000;
18:47:20:522;-0,0107;0,0141;-0,0507;56,35159264;37,52156582;0,00000000;
18:47:20:525;0,0006;0,0009;0,0401;56,35159264;37,52156582;0,00000000;
18:47:20:528;0,0006;0,0009;0,0401;56,35159264;37,52156582;0,00000000;
18:47:20:544;0,0006;0,0009;0,0401;56,35159264;37,52156582;0,00000000;
18:47:20:546;0,0003;0,0013;0,0357;56,35159264;37,52156582;0,00000000;
18:47:20:603;0,0003;0,0013;0,0357;56,35159264;37,52156582;0,00000000;
18:47:20:606;0,0003;0,0013;0,0357;56,35159264;37,52156582;0,00000000;
18:47:20:608;0,0115;0,0267;-0,0013;56,35159264;37,52156582;0,00000000;
18:47:20:663;0,0115;0,0267;-0,0013;56,35159264;37,52156582;0,00000000;
18:47:20:666;0,0115;0,0267;-0,0013;56,35159264;37,52156582;0,00000000;
18:47:20:669;-0,0158;0,0287;-0,0405;56,35159264;37,52156582;0,00000000;
18:47:20:723;-0,0158;0,0287;-0,0405;56,35159264;37,52156582;0,00000000;
18:47:20:727;-0,0158;0,0287;-0,0405;56,35159264;37,52156582;0,00000000;
18:47:20:729;0,0016;-0,0000;0,0165;56,35159264;37,52156582;0,00000000;
18:47:20:784;0,0016;-0,0000;0,0165;56,35159264;37,52156582;0,00000000;
18:47:20:789;0,0285;-0,0054;0,0335;56,35159264;37,52156582;0,00000000;
18:47:20:792;0,0285;-0,0054;0,0335;56,35159264;37,52156582;0,00000000;
18:47:20:863;0,0285;-0,0054;0,0335;56,35159264;37,52156582;0,00000000;
18:47:20:865;0,0285;-0,0054;0,0335;56,35159264;37,52156582;0,00000000;
18:47:20:866;-0,0117;0,0009;-0,0157;56,35159264;37,52156582;0,00000000;
18:47:20:925;-0,0024;-0,0060;0,0173;56,35159264;37,52156582;0,00000000;
18:47:20:929;-0,0024;-0,0060;0,0173;56,35159264;37,52156582;0,00000000;
18:47:20:931;-0,0024;-0,0060;0,0173;56,35159264;37,52156582;0,00000000;
18:47:20:984;-0,0024;-0,0060;0,0173;56,35159264;37,52156582;0,00000000;
18:47:20:986;-0,0024;-0,0060;0,0173;56,35159264;37,52156582;0,00000000;
18:47:20:987;0,0111;0,0280;-0,0183;56,35159264;37,52156582;0,00000000;
18:47:21:046;0,0111;0,0280;-0,0183;56,35159264;37,52156582;0,00000000;
18:47:21:048;0,0111;0,0280;-0,0183;56,35159264;37,52156582;0,00000000;
18:47:21:050;-0,0140;0,0119;-0,0170;56,35159264;37,52156582;0,00000000;
18:47:21:073;-0,0140;0,0119;-0,0170;56,35159264;37,52156582;0,00000000;
18:47:21:126;-0,0140;0,0119;-0,0170;56,35159264;37,52156582;0,00000000;
18:47:21:129;-0,0140;0,0119;-0,0170;56,35159264;37,52156582;0,00000000;
18:47:21:134;0,0020;-0,0049;0,0104;56,35159264;37,52156582;0,00000000;
18:47:21:186;0,0020;-0,0049;0,0104;56,35159264;37,52156582;0,00000000;
18:47:21:188;0,0020;-0,0049;0,0104;56,35159264;37,52156582;0,00000000;
18:47:21:190;0,0150;0,0129;-0,0113;56,35159264;37,52156582;0,00000000;
18:47:21:246;0,0150;0,0129;-0,0113;56,35159264;37,52156582;0,00000000;
18:47:21:249;0,0150;0,0129;-0,0113;56,35159264;37,52156582;0,00000000;
18:47:21:250;-0,0191;0,0167;-0,0050;56,35159264;37,52156582;0,00000000;
18:47:21:307;-0,0191;0,0167;-0,0050;56,35159264;37,52156582;0,00000000;
18:47:21:310;-0,0191;0,0167;-0,0050;56,35159264;37,52156582;0,00000000;
18:47:21:312;0,0014;0,0028;-0,0034;56,35159264;37,52156582;0,00000000;
18:47:21:330;0,0013;0,0030;-0,0030;56,35159264;37,52156582;0,00000000;
18:47:21:335;0,0013;0,0030;-0,0030;56,35159264;37,52156582;0,00000000;
18:47:21:387;0,0013;0,0030;-0,0030;56,35159264;37,52156582;0,00000000;
18:47:21:389;0,0013;0,0030;-0,0030;56,35159264;37,52156582;0,00000000;
18:47:21:391;0,0164;-0,0002;0,0257;56,35159264;37,52156582;0,00000000;
18:47:21:447;0,0164;-0,0002;0,0257;56,35159264;37,52156582;0,00000000;
18:47:21:450;0,0164;-0,0002;0,0257;56,35159264;37,52156582;0,00000000;
18:47:21:452;0,0131;0,0135;-0,0165;56,35159264;37,52156582;0,00000000;
18:47:21:507;0,0131;0,0135;-0,0165;56,35159264;37,52156582;0,00000000;
18:47:21:510;0,0131;0,0135;-0,0165;56,35159264;37,52156582;0,00000000;
18:47:21:512;-0,0126;0,0121;-0,0183;56,35159264;37,52156582;0,00000000;
18:47:21:568;-0,0126;0,0121;-0,0183;56,35159264;37,52156582;0,00000000;
18:47:21:571;-0,0049;0,0050;0,0299;56,35159264;37,52156582;0,00000000;
18:47:21:573;-0,0049;0,0050;0,0299;56,35159264;37,52156582;0,00000000;
18:47:21:648;-0,0049;0,0050;0,0299;56,35159264;37,52156582;0,00000000;
18:47:21:651;-0,0066;0,0108;-0,0053;56,35159264;37,52156582;0,00000000;
18:47:21:654;-0,0066;0,0108;-0,0053;56,35159264;37,52156582;0,00000000;
18:47:21:709;-0,0066;0,0108;-0,0053;56,35159264;37,52156582;0,00000000;
18:47:21:712;-0,0066;0,0108;-0,0053;56,35159264;37,52156582;0,00000000;
18:47:21:715;0,0046;-0,0044;0,0024;56,35159264;37,52156582;0,00000000;
18:47:21:768;0,0116;-0,0167;0,0109;56,35159264;37,52156582;0,00000000;
18:47:21:770;0,0116;-0,0167;0,0109;56,35159264;37,52156582;0,00000000;
18:47:21:771;0,0116;-0,0167;0,0109;56,35159264;37,52156582;0,00000000;
18:47:21:828;0,0116;-0,0167;0,0109;56,35159264;37,52156582;0,00000000;
18:47:21:829;0,0116;-0,0167;0,0109;56,35160265;37,52156368;0,00000000;
18:47:21:831;0,0060;0,0066;-0,0211;56,35160265;37,52156368;0,00000000;
18:47:21:852;0,0060;0,0066;-0,0211;56,35160265;37,52156368;0,00000000;
18:47:21:910;0,0060;0,0066;-0,0211;56,35160265;37,52156368;0,00000000;
18:47:21:913;-0,0321;0,0094;0,0053;56,35160265;37,52156368;0,00000000;
18:47:21:916;-0,0321;0,0094;0,0053;56,35160265;37,52156368;0,00000000;
18:47:21:970;-0,0321;0,0094;0,0053;56,35160265;37,52156368;0,00000000;
18:47:21:973;-0,0321;0,0094;0,0053;56,35160265;37,52156368;0,00000000;
18:47:21:975;-0,0066;-0,0166;0,0068;56,35160265;37,52156368;0,00000000;
18:47:22:030;-0,0066;-0,0166;0,0068;56,35160265;37,52156368;0,00000000;
18:47:22:033;-0,0066;-0,0166;0,0068;56,35160265;37,52156368;0,00000000;
18:47:22:035;0,0241;0,0053;0,0026;56,35160265;37,52156368;0,00000000;
18:47:22:091;0,0241;0,0053;0,0026;56,35160265;37,52156368;0,00000000;
18:47:22:093;0,0241;0,0053;0,0026;56,35160265;37,52156368;0,00000000;
18:47:22:095;0,0082;0,0139;-0,0055;56,35160265;37,52156368;0,00000000;
18:47:22:115;0,0074;0,0124;-0,0049;56,35160265;37,52156368;0,00000000;
18:47:22:120;0,0074;0,0124;-0,0049;56,35160265;37,52156368;0,00000000;
18:47:22:171;0,0074;0,0124;-0,0049;56,35160265;37,52156368;0,00000000;
18:47:22:173;0,0074;0,0124;-0,0049;56,35160265;37,52156368;0,00000000;
18:47:22:175;0,0030;0,0117;-0,0097;56,35160265;37,52156368;0,00000000;
18:47:22:230;0,0030;0,0117;-0,0097;56,35160265;37,52156368;0,00000000;
18:47:22:232;0,0030;0,0117;-0,0097;56,35160265;37,52156368;0,00000000;
18:47:22:233;-0,0061;-0,0168;0,0176;56,35160265;37,52156368;0,00000000;
18:47:22:292;-0,0061;-0,0168;0,0176;56,35160265;37,52156368;0,00000000;
18:47:22:295;-0,0061;-0,0168;0,0176;56,35160265;37,52156368;0,00000000;
18:47:22:297;0,0107;-0,0043;-0,0038;56,35160265;37,52156368;0,00000000;
18:47:22:353;0,0107;-0,0043;-0,0038;56,35160265;37,52156368;0,00000000;
18:47:22:356;0,0107;-0,0043;-0,0038;56,35160265;37,52156368;0,00000000;
18:47:22:358;-0,0043;0,0150;-0,0073;56,35160265;37,52156368;0,00000000;
18:47:22:433;-0,0043;0,0150;-0,0073;56,35160265;37,52156368;0,00000000;
18:47:22:437;0,0039;-0,0111;0,0127;56,35160265;37,52156368;0,00000000;
18:47:22:440;0,0039;-0,0111;0,0127;56,35160265;37,52156368;0,00000000;
18:47:22:492;0,0039;-0,0111;0,0127;56,35160265;37,52156368;0,00000000;
18:47:22:493;0,0039;-0,0111;0,0127;56,35160265;37,52156368;0,00000000;
18:47:22:494;0,0244;0,0024;-0,0018;56,35160265;37,52156368;0,00000000;
18:47:22:554;0,0244;0,0024;-0,0018;56,35160265;37,52156368;0,00000000;
18:47:22:556;0,0244;0,0024;-0,0018;56,35160265;37,52156368;0,00000000;
18:47:22:559;-0,0159;0,0133;-0,0137;56,35160265;37,52156368;0,00000000;
18:47:22:613;-0,0159;0,0133;-0,0137;56,35160265;37,52156368;0,00000000;
18:47:22:617;-0,0159;0,0133;-0,0137;56,35160265;37,52156368;0,00000000;
18:47:22:619;-0,0156;-0,0151;0,0080;56,35160265;37,52156368;0,00000000;
18:47:22:640;-0,0156;-0,0151;0,0080;56,35160265;37,52156368;0,00000000;
18:47:22:693;-0,0156;-0,0151;0,0080;56,35160265;37,52156368;0,00000000;
18:47:22:695;-0,0156;-0,0151;0,0080;56,35160265;37,52156368;0,00000000;
18:47:22:696;0,0071;0,0007;0,0277;56,35160265;37,52156368;0,00000000;
18:47:22:753;0,0071;0,0007;0,0277;56,35160265;37,52156368;0,00000000;
18:47:22:755;0,0071;0,0007;0,0277;56,35160265;37,52156368;0,00000000;
18:47:22:756;0,0212;0,0114;0,0009;56,35160265;37,52156368;0,00000000;
18:47:22:813;0,0212;0,0114;0,0009;56,35160265;37,52156368;0,00000000;
18:47:22:815;0,0212;0,0114;0,0009;56,35160265;37,52156368;0,00000000;
18:47:22:816;-0,0020;0,0104;-0,0120;56,35160265;37,52156368;0,00000000;
18:47:22:873;-0,0020;0,0104;-0,0120;56,35160265;37,52156368;0,00000000;
18:47:22:875;-0,0020;0,0104;-0,0120;56,35160265;37,52156368;0,00000000;
18:47:22:877;0,0014;-0,0044;0,0117;56,35160265;37,52156368;0,00000000;
18:47:22:899;0,0011;-0,0037;0,0104;56,35160265;37,52156368;0,00000000;
18:47:22:901;0,0011;-0,0037;0,0104;56,35160265;37,52156368;0,00000000;
18:47:22:954;0,0011;-0,0037;0,0104;56,35160265;37,52156368;0,00000000;
18:47:22:957;0,0146;0,0110;-0,0007;56,35160265;37,52156368;0,00000000;
18:47:22:960;0,0146;0,0110;-0,0007;56,35160265;37,52156368;0,00000000;
18:47:23:015;0,0146;0,0110;-0,0007;56,35160265;37,52156368;0,00000000;
18:47:23:019;-0,0134;0,0047;-0,0031;56,35160265;37,52156368;0,00000000;
18:47:23:022;-0,0134;0,0047;-0,0031;56,35160265;37,52156368;0,00000000;
18:47:23:075;-0,0134;0,0047;-0,0031;56,35160265;37,52156368;0,00000000;
18:47:23:078;-0,0134;0,0047;-0,0031;56,35160265;37,52156368;0,00000000;
18:47:23:081;-0,0073;-0,0067;-0,0166;56,35160265;37,52156368;0,00000000;
18:47:23:137;-0,0073;-0,0067;-0,0166;56,35160265;37,52156368;0,00000000;
18:47:23:139;-0,0032;-0,0147;0,0105;56,35160265;37,52156368;0,00000000;
18:47:23:142;-0,0032;-0,0147;0,0105;56,35160265;37,52156368;0,00000000;
18:47:23:217;-0,0032;-0,0147;0,0105;56,35160265;37,52156368;0,00000000;
18:47:23:220;-0,0032;-0,0147;0,0105;56,35160265;37,52156368;0,00000000;
18:47:23:222;-0,0228;0,0248;0,0026;56,35160265;37,52156368;0,00000000;
18:47:23:277;-0,0228;0,0248;0,0026;56,35160265;37,52156368;0,00000000;
18:47:23:280;-0,0228;0,0248;0,0026;56,35160265;37,52156368;0,00000000;
18:47:23:281;-0,0013;-0,0130;-0,0087;56,35160265;37,52156368;0,00000000;
18:47:23:338;-0,0013;-0,0130;-0,0087;56,35160265;37,52156368;0,00000000;
18:47:23:341;-0,0013;-0,0130;-0,0087;56,35160265;37,52156368;0,00000000;
18:47:23:343;0,0192;-0,0196;0,0018;56,35160265;37,52156368;0,00000000;
18:47:23:398;0,0192;-0,0196;0,0018;56,35160265;37,52156368;0,00000000;
18:47:23:401;0,0192;-0,0196;0,0018;56,35160265;37,52156368;0,00000000;
18:47:23:402;0,0061;0,0061;0,0030;56,35160265;37,52156368;0,00000000;
18:47:23:426;0,0061;0,0061;0,0030;56,35160265;37,52156368;0,00000000;
18:47:23:478;0,0061;0,0061;0,0030;56,35160265;37,52156368;0,00000000;
18:47:23:481;0,0061;0,0061;0,0030;56,35160265;37,52156368;0,00000000;
18:47:23:482;-0,0132;0,0252;-0,0136;56,35160265;37,52156368;0,00000000;
18:47:23:539;-0,0132;0,0252;-0,0136;56,35160265;37,52156368;0,00000000;
18:47:23:542;0,0064;0,0006;0,0124;56,35160265;37,52156368;0,00000000;
18:47:23:545;0,0064;0,0006;0,0124;56,35160265;37,52156368;0,00000000;
18:47:23:599;0,0064;0,0006;0,0124;56,35160265;37,52156368;0,00000000;
18:47:23:602;0,0204;0,0104;-0,0060;56,35160265;37,52156368;0,00000000;
18:47:23:605;0,0204;0,0104;-0,0060;56,35160265;37,52156368;0,00000000;
18:47:23:660;0,0204;0,0104;-0,0060;56,35160265;37,52156368;0,00000000;
18:47:23:663;0,0204;0,0104;-0,0060;56,35160265;37,52156368;0,00000000;
18:47:23:665;-0,0090;0,0085;-0,0082;56,35160265;37,52156368;0,00000000;
18:47:23:684;-0,0090;0,0085;-0,0082;56,35160265;37,52156368;0,00000000;
18:47:23:686;-0,0075;0,0073;-0,0073;56,35160265;37,52156368;0,00000000;
18:47:23:739;-0,0075;0,0073;-0,0073;56,35160265;37,52156368;0,00000000;
18:47:23:743;-0,0075;0,0073;-0,0073;56,35160265;37,52156368;0,00000000;
18:47:23:744;-0,0081;-0,0112;-0,0072;56,35160265;37,52156368;0,00000000;
18:47:23:798;-0,0081;-0,0112;-0,0072;56,35160265;37,52156368;0,00000000;
18:47:23:800;-0,0081;-0,0112;-0,0072;56,35160265;37,52156368;0,00000000;
18:47:23:802;0,0014;0,0009;0,0213;56,35160265;37,52156368;0,00000000;
18:47:23:859;0,0014;0,0009;0,0213;56,35160265;37,52156368;0,00000000;
18:47:23:861;0,0014;0,0009;0,0213;56,35160265;37,52156368;0,00000000;
18:47:23:862;0,0079;0,0306;-0,0098;56,35160265;37,52156368;0,00000000;
18:47:23:921;0,0079;0,0306;-0,0098;56,35160265;37,52156368;0,00000000;
18:47:23:923;0,0079;0,0306;-0,0098;56,35160265;37,52156368;0,00000000;
18:47:23:926;-0,0061;0,0163;-0,0073;56,35160265;37,52156368;0,00000000;
18:47:24:001;-0,0061;0,0163;-0,0073;56,35160265;37,52156368;0,00000000;
18:47:24:004;-0,0061;0,0163;-0,0073;56,35160265;37,52156368;0,00000000;
18:47:24:006;0,0174;-0,0030;0,0024;56,35160265;37,52156368;0,00000000;
18:47:24:062;0,0174;-0,0030;0,0024;56,35160265;37,52156368;0,00000000;
18:47:24:065;0,0174;-0,0030;0,0024;56,35160265;37,52156368;0,00000000;
18:47:24:067;-0,0087;0,0059;-0,0000;56,35160265;37,52156368;0,00000000;
18:47:24:122;-0,0087;0,0059;-0,0000;56,35160265;37,52156368;0,00000000;
18:47:24:125;-0,0087;0,0059;-0,0000;56,35160265;37,52156368;0,00000000;
18:47:24:127;-0,0189;0,0141;-0,0181;56,35160265;37,52156368;0,00000000;
18:47:24:182;-0,0189;0,0141;-0,0181;56,35160265;37,52156368;0,00000000;
18:47:24:184;-0,0189;0,0141;-0,0181;56,35160265;37,52156368;0,00000000;
18:47:24:186;0,0143;0,0153;0,0257;56,35160265;37,52156368;0,00000000;
18:47:24:209;0,0143;0,0153;0,0257;56,35160265;37,52156368;0,00000000;
18:47:24:263;0,0143;0,0153;0,0257;56,35160265;37,52156368;0,00000000;
18:47:24:266;0,0143;0,0153;0,0257;56,35160265;37,52156368;0,00000000;
18:47:24:268;0,0269;-0,0026;-0,0122;56,35160265;37,52156368;0,00000000;
18:47:24:322;0,0269;-0,0026;-0,0122;56,35160265;37,52156368;0,00000000;
18:47:24:326;0,0269;-0,0026;-0,0122;56,35160265;37,52156368;0,00000000;
18:47:24:331;-0,0079;-0,0107;-0,0038;56,35160265;37,52156368;0,00000000;
18:47:24:383;-0,0079;-0,0107;-0,0038;56,35160265;37,52156368;0,00000000;
18:47:24:386;-0,0079;-0,0107;-0,0038;56,35160265;37,52156368;0,00000000;
18:47:24:387;-0,0041;-0,0088;0,0066;56,35160265;37,52156368;0,00000000;
18:47:24:441;-0,0041;-0,0088;0,0066;56,35160265;37,52156368;0,00000000;
18:47:24:444;-0,0041;-0,0088;0,0066;56,35160265;37,52156368;0,00000000;
18:47:24:445;0,0031;-0,0096;0,0072;56,35160265;37,52156368;0,00000000;
18:47:24:468;0,0031;-0,0096;0,0072;56,35160265;37,52156368;0,00000000;
18:47:24:470;0,0027;-0,0082;0,0064;56,35160265;37,52156368;0,00000000;
18:47:24:523;0,0027;-0,0082;0,0064;56,35160265;37,52156368;0,00000000;
18:47:24:525;0,0077;0,0181;-0,0024;56,35160265;37,52156368;0,00000000;
18:47:24:528;0,0077;0,0181;-0,0024;56,35160265;37,52156368;0,00000000;
18:47:24:586;0,0077;0,0181;-0,0024;56,35160265;37,52156368;0,00000000;
18:47:24:588;-0,0037;0,0069;-0,0142;56,35160265;37,52156368;0,00000000;
18:47:24:590;-0,0037;0,0069;-0,0142;56,35160265;37,52156368;0,00000000;
18:47:24:643;-0,0037;0,0069;-0,0142;56,35160265;37,52156368;0,00000000;
18:47:24:646;-0,0065;-0,0276;0,0178;56,35160265;37,52156368;0,00000000;
18:47:24:648;-0,0065;-0,0276;0,0178;56,35160265;37,52156368;0,00000000;
18:47:24:704;-0,0065;-0,0276;0,0178;56,35160265;37,52156368;0,00000000;
18:47:24:708;-0,0065;-0,0276;0,0178;56,35160265;37,52156368;0,00000000;
18:47:24:709;0,0214;-0,0080;-0,0154;56,35160265;37,52156368;0,00000000;
18:47:24:783;0,0214;-0,0080;-0,0154;56,35160265;37,52156368;0,00000000;
18:47:24:784;0,0214;-0,0080;-0,0154;56,35160265;37,52156368;0,00000000;
18:47:24:785;-0,0073;0,0063;-0,0126;56,35160265;37,52156368;0,00000000;
18:47:24:843;-0,0073;0,0063;-0,0126;56,35160265;37,52156368;0,00000000;
18:47:24:845;-0,0073;0,0063;-0,0126;56,35160265;37,52156368;0,00000000;
18:47:24:846;0,0008;-0,0139;0,0253;56,35160265;37,52156368;0,00000000;
18:47:24:905;0,0008;-0,0139;0,0253;56,35160265;37,52156368;0,00000000;
18:47:24:908;0,0008;-0,0139;0,0253;56,35160265;37,52156368;0,00000000;
18:47:24:910;0,0162;-0,0005;-0,0236;56,35160265;37,52156368;0,00000000;
18:47:24:966;-0,0046;0,0043;0,0056;56,35160265;37,52156368;0,00000000;
18:47:24:969;-0,0046;0,0043;0,0056;56,35160265;37,52156368;0,00000000;
18:47:24:971;-0,0046;0,0043;0,0056;56,35160265;37,52156368;0,00000000;
18:47:24:993;-0,0046;0,0043;0,0056;56,35160265;37,52156368;0,00000000;
18:47:25:046;-0,0046;0,0043;0,0056;56,35160265;37,52156368;0,00000000;
18:47:25:049;-0,0139;-0,0018;0,0053;56,35160265;37,52156368;0,00000000;
18:47:25:051;-0,0139;-0,0018;0,0053;56,35160265;37,52156368;0,00000000;
18:47:25:106;-0,0139;-0,0018;0,0053;56,35160265;37,52156368;0,00000000;
18:47:25:109;-0,0139;-0,0018;0,0053;56,35160265;37,52156368;0,00000000;
18:47:25:111;0,0085;0,0026;-0,0024;56,35160265;37,52156368;0,00000000;
18:47:25:166;0,0085;0,0026;-0,0024;56,35160265;37,52156368;0,00000000;
18:47:25:168;0,0085;0,0026;-0,0024;56,35160265;37,52156368;0,00000000;
18:47:25:170;-0,0060;0,0065;-0,0116;56,35160265;37,52156368;0,00000000;
18:47:25:228;-0,0060;0,0065;-0,0116;56,35160265;37,52156368;0,00000000;
18:47:25:230;-0,0060;0,0065;-0,0116;56,35160265;37,52156368;0,00000000;
18:47:25:231;-0,0152;-0,0015;-0,0075;56,35160265;37,52156368;0,00000000;
18:47:25:254;-0,0152;-0,0015;-0,0075;56,35160265;37,52156368;0,00000000;
18:47:25:257;-0,0130;-0,0012;-0,0067;56,35160265;37,52156368;0,00000000;
18:47:25:307;-0,0130;-0,0012;-0,0067;56,35160265;37,52156368;0,00000000;
18:47:25:309;-0,0130;-0,0012;-0,0067;56,35160265;37,52156368;0,00000000;
18:47:25:311;0,0095;-0,0250;0,0288;56,35160265;37,52156368;0,00000000;
18:47:25:370;0,0095;-0,0250;0,0288;56,35160265;37,52156368;0,00000000;
18:47:25:372;0,0095;-0,0250;0,0288;56,35160265;37,52156368;0,00000000;
18:47:25:374;0,0229;0,0115;-0,0024;56,35160265;37,52156368;0,00000000;
18:47:25:427;0,0229;0,0115;-0,0024;56,35160265;37,52156368;0,00000000;
18:47:25:430;-0,0202;0,0169;-0,0128;56,35160265;37,52156368;0,00000000;
18:47:25:432;-0,0202;0,0169;-0,0128;56,35160265;37,52156368;0,00000000;
18:47:25:488;-0,0202;0,0169;-0,0128;56,35160265;37,52156368;0,00000000;
18:47:25:491;-0,0039;-0,0154;-0,0014;56,35160265;37,52156368;0,00000000;
18:47:25:493;-0,0039;-0,0154;-0,0014;56,35160265;37,52156368;0,00000000;
18:47:25:568;-0,0039;-0,0154;-0,0014;56,35160265;37,52156368;0,00000000;
18:47:25:571;-0,0039;-0,0154;-0,0014;56,35160265;37,52156368;0,00000000;
18:47:25:572;0,0046;0,0096;-0,0115;56,35160265;37,52156368;0,00000000;
18:47:25:629;0,0046;0,0096;-0,0115;56,35160265;37,52156368;0,00000000;
18:47:25:631;-0,0057;-0,0004;-0,0276;56,35160265;37,52156368;0,00000000;
18:47:25:633;-0,0057;-0,0004;-0,0276;56,35160265;37,52156368;0,00000000;
18:47:25:689;-0,0057;-0,0004;-0,0276;56,35160265;37,52156368;0,00000000;
18:47:25:692;0,0064;-0,0079;0,0304;56,35160265;37,52156368;0,00000000;
18:47:25:693;0,0064;-0,0079;0,0304;56,35160265;37,52156368;0,00000000;
18:47:25:750;0,0064;-0,0079;0,0304;56,35160265;37,52156368;0,00000000;
18:47:25:752;0,0064;-0,0079;0,0304;56,35160265;37,52156368;0,00000000;
18:47:25:753;0,0129;0,0040;-0,0099;56,35160265;37,52156368;0,00000000;
18:47:25:777;0,0129;0,0040;-0,0099;56,35160265;37,52156368;0,00000000;
18:47:25:828;0,0129;0,0040;-0,0099;56,35160265;37,52156368;0,00000000;
18:47:25:830;0,0129;0,0040;-0,0099;56,35160265;37,52156368;0,00000000;
18:47:25:831;-0,0158;0,0140;-0,0152;56,35160265;37,52156368;0,00000000;
18:47:25:889;-0,0158;0,0140;-0,0152;56,35160265;37,52156368;0,00000000;
18:47:25:891;0,0020;-0,0197;0,0163;56,35160265;37,52156368;0,00000000;
18:47:25:892;0,0020;-0,0197;0,0163;56,35160265;37,52156368;0,00000000;
18:47:25:950;0,0020;-0,0197;0,0163;56,35160265;37,52156368;0,00000000;
18:47:25:952;0,0022;-0,0287;0,0031;56,35160265;37,52156368;0,00000000;
18:47:25:955;0,0022;-0,0287;0,0031;56,35160265;37,52156368;0,00000000;
18:47:26:011;0,0022;-0,0287;0,0031;56,35160265;37,52156368;0,00000000;
18:47:26:013;0,0022;-0,0287;0,0031;56,35160265;37,52156368;0,00000000;
18:47:26:015;0,0073;0,0173;-0,0156;56,35160265;37,52156368;0,00000000;
18:47:26:040;0,0066;0,0150;-0,0139;56,35160265;37,52156368;0,00000000;
18:47:26:042;0,0066;0,0150;-0,0139;56,35160265;37,52156368;0,00000000;
18:47:26:091;0,0066;0,0150;-0,0139;56,35160265;37,52156368;0,00000000;
18:47:26:094;0,0066;0,0150;-0,0139;56,35160265;37,52156368;0,00000000;
18:47:26:096;0,0001;0,0132;-0,0156;56,35160265;37,52156368;0,00000000;
18:47:26:151;0,0001;0,0132;-0,0156;56,35160265;37,52156368;0,00000000;
18:47:26:153;0,0001;0,0132;-0,0156;56,35160265;37,52156368;0,00000000;
18:47:26:155;0,0006;-0,0111;0,0202;56,35160265;37,52156368;0,00000000;
18:47:26:211;0,0006;-0,0111;0,0202;56,35160265;37,52156368;0,00000000;
18:47:26:213;0,0006;-0,0111;0,0202;56,35160265;37,52156368;0,00000000;
18:47:26:214;0,0182;0,0004;-0,0143;56,35160265;37,52156368;0,00000000;
18:47:26:271;0,0182;0,0004;-0,0143;56,35160265;37,52156368;0,00000000;
18:47:26:273;0,0182;0,0004;-0,0143;56,35160265;37,52156368;0,00000000;
18:47:26:274;-0,0257;0,0014;-0,0134;56,35160265;37,52156368;0,00000000;
18:47:26:353;-0,0257;0,0014;-0,0134;56,35160265;37,52156368;0,00000000;
18:47:26:355;-0,0257;0,0014;-0,0134;56,35160265;37,52156368;0,00000000;
18:47:26:357;0,0095;0,0024;0,0193;56,35160265;37,52156368;0,00000000;
18:47:26:412;0,0095;0,0024;0,0193;56,35160265;37,52156368;0,00000000;
18:47:26:414;0,0095;0,0024;0,0193;56,35160265;37,52156368;0,00000000;
18:47:26:417;-0,0013;0,0080;-0,0159;56,35160265;37,52156368;0,00000000;
18:47:26:472;-0,0013;0,0080;-0,0159;56,35160265;37,52156368;0,00000000;
18:47:26:474;-0,0013;0,0080;-0,0159;56,35160265;37,52156368;0,00000000;
18:47:26:476;0,0015;-0,0154;-0,0130;56,35160265;37,52156368;0,00000000;
18:47:26:533;0,0015;-0,0154;-0,0130;56,35160265;37,52156368;0,00000000;
18:47:26:537;0,0015;-0,0154;-0,0130;56,35160265;37,52156368;0,00000000;
18:47:26:540;0,0011;-0,0162;0,0349;56,35160265;37,52156368;0,00000000;
18:47:26:563;0,0011;-0,0162;0,0349;56,35160265;37,52156368;0,00000000;
18:47:26:614;0,0011;-0,0162;0,0349;56,35160265;37,52156368;0,00000000;
18:47:26:618;0,0011;-0,0162;0,0349;56,35160265;37,52156368;0,00000000;
18:47:26:620;0,0161;0,0035;-0,0055;56,35160265;37,52156368;0,00000000;
18:47:26:676;0,0161;0,0035;-0,0055;56,35160265;37,52156368;0,00000000;
18:47:26:679;0,0161;0,0035;-0,0055;56,35160265;37,52156368;0,00000000;
18:47:26:681;-0,0235;0,0011;-0,0181;56,35160265;37,52156368;0,00000000;
18:47:26:733;-0,0235;0,0011;-0,0181;56,35160265;37,52156368;0,00000000;
18:47:26:737;-0,0235;0,0011;-0,0181;56,35160265;37,52156368;0,00000000;
18:47:26:739;-0,0044;-0,0086;0,0006;56,35160265;37,52156368;0,00000000;
18:47:26:793;-0,0044;-0,0086;0,0006;56,35160265;37,52156368;0,00000000;
18:47:26:796;0,0234;-0,0027;0,0052;56,35161266;37,52155754;0,00000000;
18:47:26:798;0,0234;-0,0027;0,0052;56,35161266;37,52155754;0,00000000;
18:47:26:823;0,0234;-0,0027;0,0052;56,35161266;37,52155754;0,00000000;
18:47:26:825;0,0004;0,0082;0,0014;56,35161266;37,52155754;0,00000000;
18:47:26:885;0,0004;0,0082;0,0014;56,35161266;37,52155754;0,00000000;
18:47:26:887;0,0004;0,0082;0,0014;56,35161266;37,52155754;0,00000000;
18:47:26:888;-0,0136;-0,0029;-0,0108;56,35161266;37,52155754;0,00000000;
18:47:26:945;-0,0136;-0,0029;-0,0108;56,35161266;37,52155754;0,00000000;
18:47:26:946;-0,0136;-0,0029;-0,0108;56,35161266;37,52155754;0,00000000;
18:47:26:947;0,0009;-0,0063;0,0127;56,35161266;37,52155754;0,00000000;
18:47:27:006;0,0009;-0,0063;0,0127;56,35161266;37,52155754;0,00000000;
18:47:27:009;0,0204;0,0172;-0,0043;56,35161266;37,52155754;0,00000000;
18:47:27:011;0,0204;0,0172;-0,0043;56,35161266;37,52155754;0,00000000;
18:47:27:066;0,0204;0,0172;-0,0043;56,35161266;37,52155754;0,00000000;
18:47:27:068;0,0204;0,0172;-0,0043;56,35161266;37,52155754;0,00000000;
18:47:27:069;-0,0129;0,0129;-0,0010;56,35161266;37,52155754;0,00000000;
18:47:27:147;-0,0129;0,0129;-0,0010;56,35161266;37,52155754;0,00000000;
18:47:27:149;-0,0129;0,0129;-0,0010;56,35161266;37,52155754;0,00000000;
18:47:27:151;-0,0053;-0,0154;0,0037;56,35161266;37,52155754;0,00000000;
18:47:27:208;-0,0053;-0,0154;0,0037;56,35161266;37,52155754;0,00000000;
18:47:27:210;-0,0053;-0,0154;0,0037;56,35161266;37,52155754;0,00000000;
18:47:27:212;0,0021;-0,0009;0,0012;56,35161266;37,52155754;0,00000000;
18:47:27:268;0,0021;-0,0009;0,0012;56,35161266;37,52155754;0,00000000;
18:47:27:271;0,0021;-0,0009;0,0012;56,35161266;37,52155754;0,00000000;
18:47:27:272;0,0005;0,0128;-0,0149;56,35161266;37,52155754;0,00000000;
18:47:27:329;-0,0046;0,0151;-0,0125;56,35161266;37,52155754;0,00000000;
18:47:27:332;-0,0046;0,0151;-0,0125;56,35161266;37,52155754;0,00000000;
18:47:27:334;-0,0046;0,0151;-0,0125;56,35161266;37,52155754;0,00000000;
18:47:27:348;-0,0046;0,0151;-0,0125;56,35161266;37,52155754;0,00000000;
18:47:27:350;-0,0046;0,0151;-0,0125;56,35161266;37,52155754;0,00000000;
18:47:27:352;-0,0035;0,0132;-0,0112;56,35161266;37,52155754;0,00000000;
18:47:27:408;-0,0035;0,0132;-0,0112;56,35161266;37,52155754;0,00000000;
18:47:27:411;-0,0093;-0,0111;0,0348;56,35161266;37,52155754;0,00000000;
18:47:27:412;-0,0093;-0,0111;0,0348;56,35161266;37,52155754;0,00000000;
18:47:27:469;-0,0093;-0,0111;0,0348;56,35161266;37,52155754;0,00000000;
18:47:27:472;-0,0093;-0,0111;0,0348;56,35161266;37,52155754;0,00000000;
18:47:27:474;0,0132;-0,0041;-0,0223;56,35161266;37,52155754;0,00000000;
18:47:27:529;0,0132;-0,0041;-0,0223;56,35161266;37,52155754;0,00000000;
18:47:27:532;0,0132;-0,0041;-0,0223;56,35161266;37,52155754;0,00000000;
18:47:27:533;-0,0069;0,0045;-0,0053;56,35161266;37,52155754;0,00000000;
18:47:27:590;-0,0069;0,0045;-0,0053;56,35161266;37,52155754;0,00000000;
18:47:27:593;-0,0069;0,0045;-0,0053;56,35161266;37,52155754;0,00000000;
18:47:27:595;-0,0082;-0,0090;0,0187;56,35161266;37,52155754;0,00000000;
18:47:27:670;-0,0082;-0,0090;0,0187;56,35161266;37,52155754;0,00000000;
18:47:27:672;-0,0082;-0,0090;0,0187;56,35161266;37,52155754;0,00000000;
18:47:27:674;0,0137;0,0077;-0,0110;56,35161266;37,52155754;0,00000000;
18:47:27:730;0,0137;0,0077;-0,0110;56,35161266;37,52155754;0,00000000;
18:47:27:735;0,0137;0,0077;-0,0110;56,35161266;37,52155754;0,00000000;
18:47:27:737;0,0001;0,0038;-0,0059;56,35161266;37,52155754;0,00000000;
18:47:27:789;0,0001;0,0038;-0,0059;56,35161266;37,52155754;0,00000000;
18:47:27:791;0,0001;0,0038;-0,0059;56,35161266;37,52155754;0,00000000;
18:47:27:792;0,0026;-0,0245;0,0277;56,35161266;37,52155754;0,00000000;
18:47:27:850;0,0026;-0,0245;0,0277;56,35161266;37,52155754;0,00000000;
18:47:27:851;0,0026;-0,0245;0,0277;56,35161266;37,52155754;0,00000000;
18:47:27:852;0,0208;0,0050;-0,0041;56,35161266;37,52155754;0,00000000;
18:47:27:931;0,0208;0,0050;-0,0041;56,35161266;37,52155754;0,00000000;
18:47:27:933;-0,0098;0,0064;-0,0051;56,35161266;37,52155754;0,00000000;
18:47:27:934;-0,0098;0,0064;-0,0051;56,35161266;37,52155754;0,00000000;
18:47:27:991;-0,0098;0,0064;-0,0051;56,35161266;37,52155754;0,00000000;
18:47:27:993;-0,0098;0,0064;-0,0051;56,35161266;37,52155754;0,00000000;
18:47:27:996;-0,0018;-0,0189;0,0008;56,35161266;37,52155754;0,00000000;
18:47:28:051;-0,0018;-0,0189;0,0008;56,35161266;37,52155754;0,00000000;
18:47:28:054;-0,0018;-0,0189;0,0008;56,35161266;37,52155754;0,00000000;
18:47:28:055;0,0183;-0,0108;0,0199;56,35161266;37,52155754;0,00000000;
18:47:28:112;0,0183;-0,0108;0,0199;56,35161266;37,52155754;0,00000000;
18:47:28:113;0,0127;0,0075;0,0077;56,35161266;37,52155754;0,00000000;
18:47:28:116;0,0127;0,0075;0,0077;56,35161266;37,52155754;0,00000000;
18:47:28:134;0,0116;0,0058;0,0068;56,35161266;37,52155754;0,00000000;
18:47:28:136;0,0116;0,0058;0,0068;56,35161266;37,52155754;0,00000000;
18:47:28:137;0,0116;0,0058;0,0068;56,35161266;37,52155754;0,00000000;
18:47:28:192;0,0116;0,0058;0,0068;56,35161266;37,52155754;0,00000000;
18:47:28:194;-0,0077;0,0027;-0,0145;56,35161266;37,52155754;0,00000000;
18:47:28:196;-0,0077;0,0027;-0,0145;56,35161266;37,52155754;0,00000000;
18:47:28:253;-0,0077;0,0027;-0,0145;56,35161266;37,52155754;0,00000000;
18:47:28:256;-0,0088;-0,0058;0,0251;56,35161266;37,52155754;0,00000000;
18:47:28:259;-0,0088;-0,0058;0,0251;56,35161266;37,52155754;0,00000000;
18:47:28:314;-0,0088;-0,0058;0,0251;56,35161266;37,52155754;0,00000000;
18:47:28:316;-0,0088;-0,0058;0,0251;56,35161266;37,52155754;0,00000000;
18:47:28:320;0,0190;0,0016;-0,0096;56,35161266;37,52155754;0,00000000;
18:47:28:374;0,0190;0,0016;-0,0096;56,35161266;37,52155754;0,00000000;
18:47:28:377;0,0190;0,0016;-0,0096;56,35161266;37,52155754;0,00000000;
18:47:28:381;-0,0123;0,0077;0,0046;56,35161266;37,52155754;0,00000000;
18:47:28:455;-0,0123;0,0077;0,0046;56,35161266;37,52155754;0,00000000;
18:47:28:458;-0,0123;0,0077;0,0046;56,35161266;37,52155754;0,00000000;
18:47:28:460;0,0070;-0,0166;0,0044;56,35161266;37,52155754;0,00000000;
18:47:28:514;0,0070;-0,0166;0,0044;56,35161266;37,52155754;0,00000000;
18:47:28:518;0,0070;-0,0166;0,0044;56,35161266;37,52155754;0,00000000;
18:47:28:520;0,0036;0,0092;-0,0049;56,35161266;37,52155754;0,00000000;
18:47:28:576;0,0036;0,0092;-0,0049;56,35161266;37,52155754;0,00000000;
18:47:28:578;0,0036;0,0092;-0,0049;56,35161266;37,52155754;0,00000000;
18:47:28:580;-0,0199;0,0043;-0,0055;56,35161266;37,52155754;0,00000000;
18:47:28:635;-0,0199;0,0043;-0,0055;56,35161266;37,52155754;0,00000000;
18:47:28:638;-0,0199;0,0043;-0,0055;56,35161266;37,52155754;0,00000000;
18:47:28:640;-0,0003;-0,0210;0,0139;56,35161266;37,52155754;0,00000000;
18:47:28:717;-0,0003;-0,0210;0,0139;56,35161266;37,52155754;0,00000000;
18:47:28:720;-0,0003;-0,0210;0,0139;56,35161266;37,52155754;0,00000000;
18:47:28:721;0,0353;0,0031;-0,0064;56,35161266;37,52155754;0,00000000;
18:47:28:775;0,0353;0,0031;-0,0064;56,35161266;37,52155754;0,00000000;
18:47:28:777;0,0353;0,0031;-0,0064;56,35161266;37,52155754;0,00000000;
18:47:28:778;-0,0066;0,0056;0,0064;56,35161266;37,52155754;0,00000000;
18:47:28:835;-0,0066;0,0056;0,0064;56,35161266;37,52155754;0,00000000;
18:47:28:837;-0,0066;0,0056;0,0064;56,35161266;37,52155754;0,00000000;
18:47:28:839;-0,0062;-0,0018;-0,0057;56,35161266;37,52155754;0,00000000;
18:47:28:898;-0,0062;-0,0018;-0,0057;56,35161266;37,52155754;0,00000000;
18:47:28:901;-0,0062;-0,0018;-0,0057;56,35161266;37,52155754;0,00000000;
18:47:28:903;0,0016;-0,0069;0,0194;56,35161266;37,52155754;0,00000000;
18:47:28:930;0,0016;-0,0069;0,0194;56,35161266;37,52155754;0,00000000;
18:47:28:935;0,0016;-0,0069;0,0194;56,35161266;37,52155754;0,00000000;
18:47:28:938;0,0011;-0,0056;0,0173;56,35161266;37,52155754;0,00000000;
18:47:28:977;0,0011;-0,0056;0,0173;56,35161266;37,52155754;0,00000000;
18:47:28:979;0,0011;-0,0056;0,0173;56,35161266;37,52155754;0,00000000;
18:47:28:981;0,0138;-0,0017;-0,0031;56,35161266;37,52155754;0,00000000;
18:47:29:038;0,0138;-0,0017;-0,0031;56,35161266;37,52155754;0,00000000;
18:47:29:042;0,0138;-0,0017;-0,0031;56,35161266;37,52155754;0,00000000;
18:47:29:044;-0,0086;0,0117;-0,0035;56,35161266;37,52155754;0,00000000;
18:47:29:098;-0,0086;0,0117;-0,0035;56,35161266;37,52155754;0,00000000;
18:47:29:101;-0,0086;0,0117;-0,0035;56,35161266;37,52155754;0,00000000;
18:47:29:103;-0,0048;-0,0091;0,0154;56,35161266;37,52155754;0,00000000;
18:47:29:159;-0,0048;-0,0091;0,0154;56,35161266;37,52155754;0,00000000;
18:47:29:163;-0,0048;-0,0091;0,0154;56,35161266;37,52155754;0,00000000;
18:47:29:166;0,0186;0,0002;0,0012;56,35161266;37,52155754;0,00000000;
18:47:29:239;0,0186;0,0002;0,0012;56,35161266;37,52155754;0,00000000;
18:47:29:242;0,0186;0,0002;0,0012;56,35161266;37,52155754;0,00000000;
18:47:29:245;-0,0092;0,0023;-0,0103;56,35161266;37,52155754;0,00000000;
18:47:29:300;-0,0092;0,0023;-0,0103;56,35161266;37,52155754;0,00000000;
18:47:29:302;-0,0092;0,0023;-0,0103;56,35161266;37,52155754;0,00000000;
18:47:29:305;-0,0012;-0,0116;0,0185;56,35161266;37,52155754;0,00000000;
18:47:29:358;-0,0012;-0,0116;0,0185;56,35161266;37,52155754;0,00000000;
18:47:29:361;-0,0012;-0,0116;0,0185;56,35161266;37,52155754;0,00000000;
18:47:29:364;0,0222;0,0077;-0,0101;56,35161266;37,52155754;0,00000000;
18:47:29:418;0,0222;0,0077;-0,0101;56,35161266;37,52155754;0,00000000;
18:47:29:420;0,0222;0,0077;-0,0101;56,35161266;37,52155754;0,00000000;
18:47:29:421;-0,0269;0,0148;0,0023;56,35161266;37,52155754;0,00000000;
18:47:29:499;-0,0269;0,0148;0,0023;56,35161266;37,52155754;0,00000000;
18:47:29:502;-0,0269;0,0148;0,0023;56,35161266;37,52155754;0,00000000;
18:47:29:504;-0,0079;-0,0089;-0,0043;56,35161266;37,52155754;0,00000000;
18:47:29:561;-0,0079;-0,0089;-0,0043;56,35161266;37,52155754;0,00000000;
18:47:29:565;-0,0079;-0,0089;-0,0043;56,35161266;37,52155754;0,00000000;
18:47:29:567;0,0120;-0,0012;0,0000;56,35161266;37,52155754;0,00000000;
18:47:29:621;0,0120;-0,0012;0,0000;56,35161266;37,52155754;0,00000000;
18:47:29:624;0,0120;-0,0012;0,0000;56,35161266;37,52155754;0,00000000;
18:47:29:626;0,0048;0,0067;-0,0099;56,35161266;37,52155754;0,00000000;
18:47:29:679;0,0048;0,0067;-0,0099;56,35161266;37,52155754;0,00000000;
18:47:29:680;0,0048;0,0067;-0,0099;56,35161266;37,52155754;0,00000000;
18:47:29:684;-0,0031;-0,0015;-0,0120;56,35161266;37,52155754;0,00000000;
18:47:29:703;-0,0024;-0,0015;-0,0107;56,35161266;37,52155754;0,00000000;
18:47:29:705;-0,0024;-0,0015;-0,0107;56,35161266;37,52155754;0,00000000;
18:47:29:707;-0,0024;-0,0015;-0,0107;56,35161266;37,52155754;0,00000000;
18:47:29:760;-0,0024;-0,0015;-0,0107;56,35161266;37,52155754;0,00000000;
18:47:29:762;-0,0024;-0,0015;-0,0107;56,35161266;37,52155754;0,00000000;
18:47:29:764;0,0025;-0,0143;0,0331;56,35161266;37,52155754;0,00000000;
18:47:29:820;0,0025;-0,0143;0,0331;56,35161266;37,52155754;0,00000000;
18:47:29:822;0,0025;-0,0143;0,0331;56,35161266;37,52155754;0,00000000;
18:47:29:823;0,0159;0,0055;-0,0128;56,35161266;37,52155754;0,00000000;
18:47:29:880;0,0159;0,0055;-0,0128;56,35161266;37,52155754;0,00000000;
18:47:29:882;0,0159;0,0055;-0,0128;56,35161266;37,52155754;0,00000000;
18:47:29:883;-0,0177;0,0071;-0,0079;56,35161266;37,52155754;0,00000000;
18:47:29:943;-0,0177;0,0071;-0,0079;56,35161266;37,52155754;0,00000000;
18:47:29:946;-0,0177;0,0071;-0,0079;56,35161266;37,52155754;0,00000000;
18:47:29:948;-0,0062;-0,0036;0,0068;56,35161266;37,52155754;0,00000000;
18:47:30:023;-0,0062;-0,0036;0,0068;56,35161266;37,52155754;0,00000000;
18:47:30:026;-0,0062;-0,0036;0,0068;56,35161266;37,52155754;0,00000000;
18:47:30:029;0,0051;0,0033;-0,0102;56,35161266;37,52155754;0,00000000;
18:47:30:084;0,0051;0,0033;-0,0102;56,35161266;37,52155754;0,00000000;
18:47:30:087;0,0051;0,0033;-0,0102;56,35161266;37,52155754;0,00000000;
18:47:30:088;-0,0077;0,0040;-0,0045;56,35161266;37,52155754;0,00000000;
18:47:30:145;-0,0077;0,0040;-0,0045;56,35161266;37,52155754;0,00000000;
18:47:30:147;-0,0077;0,0040;-0,0045;56,35161266;37,52155754;0,00000000;
18:47:30:150;0,0008;-0,0108;0,0223;56,35161266;37,52155754;0,00000000;
18:47:30:204;0,0008;-0,0108;0,0223;56,35161266;37,52155754;0,00000000;
18:47:30:207;0,0008;-0,0108;0,0223;56,35161266;37,52155754;0,00000000;
18:47:30:209;0,0161;0,0057;-0,0103;56,35161266;37,52155754;0,00000000;
18:47:30:285;0,0161;0,0057;-0,0103;56,35161266;37,52155754;0,00000000;
18:47:30:287;0,0161;0,0057;-0,0103;56,35161266;37,52155754;0,00000000;
18:47:30:290;-0,0204;0,0091;0,0011;56,35161266;37,52155754;0,00000000;
18:47:30:345;-0,0204;0,0091;0,0011;56,35161266;37,52155754;0,00000000;
18:47:30:348;-0,0204;0,0091;0,0011;56,35161266;37,52155754;0,00000000;
18:47:30:350;-0,0035;-0,0075;0,0045;56,35161266;37,52155754;0,00000000;
18:47:30:405;-0,0035;-0,0075;0,0045;56,35161266;37,52155754;0,00000000;
18:47:30:408;-0,0035;-0,0075;0,0045;56,35161266;37,52155754;0,00000000;
18:47:30:410;0,0098;0,0004;0,0118;56,35161266;37,52155754;0,00000000;
18:47:30:465;0,0098;0,0004;0,0118;56,35161266;37,52155754;0,00000000;
18:47:30:469;0,0098;0,0004;0,0118;56,35161266;37,52155754;0,00000000;
18:47:30:471;-0,0033;0,0018;-0,0054;56,35161266;37,52155754;0,00000000;
18:47:30:492;-0,0033;0,0018;-0,0054;56,35161266;37,52155754;0,00000000;
18:47:30:495;-0,0033;0,0018;-0,0054;56,35161266;37,52155754;0,00000000;
18:47:30:497;-0,0027;0,0014;-0,0049;56,35161266;37,52155754;0,00000000;
18:47:30:544;-0,0027;0,0014;-0,0049;56,35161266;37,52155754;0,00000000;
18:47:30:546;-0,0027;0,0014;-0,0049;56,35161266;37,52155754;0,00000000;
18:47:30:547;-0,0058;0,0013;-0,0079;56,35161266;37,52155754;0,00000000;
18:47:30:606;-0,0058;0,0013;-0,0079;56,35161266;37,52155754;0,00000000;
18:47:30:609;-0,0058;0,0013;-0,0079;56,35161266;37,52155754;0,00000000;
18:47:30:611;-0,0052;-0,0180;0,0306;56,35161266;37,52155754;0,00000000;
18:47:30:666;-0,0052;-0,0180;0,0306;56,35161266;37,52155754;0,00000000;
18:47:30:669;-0,0052;-0,0180;0,0306;56,35161266;37,52155754;0,00000000;
18:47:30:671;0,0174;0,0041;-0,0083;56,35161266;37,52155754;0,00000000;
18:47:30:727;0,0174;0,0041;-0,0083;56,35161266;37,52155754;0,00000000;
18:47:30:730;0,0174;0,0041;-0,0083;56,35161266;37,52155754;0,00000000;
18:47:30:732;-0,0063;0,0110;-0,0045;56,35161266;37,52155754;0,00000000;
18:47:30:806;-0,0063;0,0110;-0,0045;56,35161266;37,52155754;0,00000000;
18:47:30:809;-0,0063;0,0110;-0,0045;56,35161266;37,52155754;0,00000000;
18:47:30:811;0,0114;-0,0136;0,0066;56,35161266;37,52155754;0,00000000;
18:47:30:865;0,0114;-0,0136;0,0066;56,35161266;37,52155754;0,00000000;
18:47:30:867;0,0114;-0,0136;0,0066;56,35161266;37,52155754;0,00000000;
18:47:30:868;0,0127;0,0093;-0,0161;56,35161266;37,52155754;0,00000000;
18:47:30:928;0,0127;0,0093;-0,0161;56,35161266;37,52155754;0,00000000;
18:47:30:931;0,0127;0,0093;-0,0161;56,35161266;37,52155754;0,00000000;
18:47:30:933;-0,0098;0,0104;-0,0026;56,35161266;37,52155754;0,00000000;
18:47:30:989;-0,0060;-0,0139;0,0147;56,35161266;37,52155754;0,00000000;
18:47:30:992;-0,0060;-0,0139;0,0147;56,35161266;37,52155754;0,00000000;
18:47:30:994;-0,0060;-0,0139;0,0147;56,35161266;37,52155754;0,00000000;
18:47:31:069;-0,0060;-0,0139;0,0147;56,35161266;37,52155754;0,00000000;
18:47:31:073;-0,0060;-0,0139;0,0147;56,35161266;37,52155754;0,00000000;
18:47:31:075;0,0125;0,0106;-0,0054;56,35161266;37,52155754;0,00000000;
18:47:31:128;0,0125;0,0106;-0,0054;56,35161266;37,52155754;0,00000000;
18:47:31:131;-0,0165;0,0034;-0,0009;56,35161266;37,52155754;0,00000000;
18:47:31:135;-0,0165;0,0034;-0,0009;56,35161266;37,52155754;0,00000000;
18:47:31:190;-0,0165;0,0034;-0,0009;56,35161266;37,52155754;0,00000000;
18:47:31:193;-0,0165;0,0034;-0,0009;56,35161266;37,52155754;0,00000000;
18:47:31:195;0,0006;0,0001;-0,0018;56,35161266;37,52155754;0,00000000;
18:47:31:250;0,0006;0,0001;-0,0018;56,35161266;37,52155754;0,00000000;
18:47:31:253;0,0006;0,0001;-0,0018;56,35161266;37,52155754;0,00000000;
18:47:31:256;0,0061;0,0006;0,0168;56,35161266;37,52155754;0,00000000;
18:47:31:281;0,0050;0,0011;0,0150;56,35161266;37,52155754;0,00000000;
18:47:31:284;0,0050;0,0011;0,0150;56,35161266;37,52155754;0,00000000;
18:47:31:289;0,0050;0,0011;0,0150;56,35161266;37,52155754;0,00000000;
18:47:31:330;0,0050;0,0011;0,0150;56,35161266;37,52155754;0,00000000;
18:47:31:333;0,0050;0,0011;0,0150;56,35161266;37,52155754;0,00000000;
18:47:31:335;0,0085;0,0089;-0,0119;56,35161266;37,52155754;0,00000000;
18:47:31:390;0,0085;0,0089;-0,0119;56,35161266;37,52155754;0,00000000;
18:47:31:394;0,0085;0,0089;-0,0119;56,35161266;37,52155754;0,00000000;
18:47:31:395;-0,0123;0,0063;-0,0056;56,35161266;37,52155754;0,00000000;
18:47:31:451;-0,0123;0,0063;-0,0056;56,35161266;37,52155754;0,00000000;
18:47:31:454;-0,0123;0,0063;-0,0056;56,35161266;37,52155754;0,00000000;
18:47:31:457;-0,0067;-0,0195;0,0287;56,35161266;37,52155754;0,00000000;
18:47:31:511;-0,0067;-0,0195;0,0287;56,35161266;37,52155754;0,00000000;
18:47:31:514;0,0118;0,0034;-0,0053;56,35161266;37,52155754;0,00000000;
18:47:31:517;0,0118;0,0034;-0,0053;56,35161266;37,52155754;0,00000000;
18:47:31:591;0,0118;0,0034;-0,0053;56,35161266;37,52155754;0,00000000;
18:47:31:595;0,0118;0,0034;-0,0053;56,35161266;37,52155754;0,00000000;
18:47:31:597;-0,0014;0,0015;-0,0033;56,35161266;37,52155754;0,00000000;
18:47:31:652;-0,0014;0,0015;-0,0033;56,35161266;37,52155754;0,00000000;
18:47:31:655;-0,0014;0,0015;-0,0033;56,35161266;37,52155754;0,00000000;
18:47:31:657;0,0033;-0,0126;0,0105;56,35161266;37,52155754;0,00000000;
18:47:31:712;0,0033;-0,0126;0,0105;56,35161266;37,52155754;0,00000000;
18:47:31:716;0,0033;-0,0126;0,0105;56,35161266;37,52155754;0,00000000;
18:47:31:718;0,0086;0,0228;-0,0115;56,35161266;37,52155754;0,00000000;
18:47:31:773;-0,0129;0,0015;-0,0145;56,35161266;37,52155754;0,00000000;
18:47:31:777;-0,0129;0,0015;-0,0145;56,35161266;37,52155754;0,00000000;
18:47:31:782;-0,0129;0,0015;-0,0145;56,35161266;37,52155754;0,00000000;
18:47:31:852;-0,0056;-0,0128;0,0194;56,35161266;37,52155754;0,00000000;
18:47:31:855;-0,0056;-0,0128;0,0194;56,35161266;37,52155754;0,00000000;
18:47:31:856;-0,0056;-0,0128;0,0194;56,35161266;37,52155754;0,00000000;
18:47:31:912;-0,0056;-0,0128;0,0194;56,35161266;37,52155754;0,00000000;
18:47:31:915;-0,0056;-0,0128;0,0194;56,35161266;37,52155754;0,00000000;
18:47:31:917;0,0160;0,0087;-0,0002;56,35161266;37,52155754;0,00000000;
18:47:31:972;0,0160;0,0087;-0,0002;56,35161266;37,52155754;0,00000000;
18:47:31:974;0,0160;0,0087;-0,0002;56,35161266;37,52155754;0,00000000;
18:47:31:976;-0,0079;0,0111;-0,0009;56,35161266;37,52155754;0,00000000;
18:47:32:033;-0,0079;0,0111;-0,0009;56,35161266;37,52155754;0,00000000;
18:47:32:037;-0,0079;0,0111;-0,0009;56,35161266;37,52155754;0,00000000;
18:47:32:041;-0,0055;-0,0061;-0,0114;56,35161266;37,52155754;0,00000000;
18:47:32:057;-0,0055;-0,0061;-0,0114;56,35161266;37,52155754;0,00000000;
18:47:32:061;-0,0055;-0,0061;-0,0114;56,35161266;37,52155754;0,00000000;
18:47:32:065;-0,0047;-0,0054;-0,0102;56,35161266;37,52155754;0,00000000;
18:47:32:113;-0,0047;-0,0054;-0,0102;56,35161266;37,52155754;0,00000000;
18:47:32:116;-0,0047;-0,0054;-0,0102;56,35161266;37,52155754;0,00000000;
18:47:32:119;0,0036;-0,0064;0,0211;56,35161266;37,52155754;0,00000000;
18:47:32:173;0,0036;-0,0064;0,0211;56,35161266;37,52155754;0,00000000;
18:47:32:176;0,0036;-0,0064;0,0211;56,35161266;37,52155754;0,00000000;
18:47:32:178;0,0149;0,0052;-0,0153;56,35161266;37,52155754;0,00000000;
18:47:32:235;0,0149;0,0052;-0,0153;56,35161266;37,52155754;0,00000000;
18:47:32:238;0,0149;0,0052;-0,0153;56,35161266;37,52155754;0,00000000;
18:47:32:241;-0,0062;0,0156;-0,0083;56,35161266;37,52155754;0,00000000;
18:47:32:296;-0,0062;0,0156;-0,0083;56,35161266;37,52155754;0,00000000;
18:47:32:300;-0,0062;0,0156;-0,0083;56,35161266;37,52155754;0,00000000;
18:47:32:302;-0,0062;-0,0118;0,0203;56,35161266;37,52155754;0,00000000;
18:47:32:375;-0,0062;-0,0118;0,0203;56,35161266;37,52155754;0,00000000;
18:47:32:379;-0,0062;-0,0118;0,0203;56,35161266;37,52155754;0,00000000;
18:47:32:381;-0,0034;0,0141;-0,0114;56,35161266;37,52155754;0,00000000;
18:47:32:435;-0,0034;0,0141;-0,0114;56,35161266;37,52155754;0,00000000;
18:47:32:438;-0,0034;0,0141;-0,0114;56,35161266;37,52155754;0,00000000;
18:47:32:440;-0,0008;0,0011;-0,0038;56,35161266;37,52155754;0,00000000;
18:47:32:496;-0,0008;0,0011;-0,0038;56,35161266;37,52155754;0,00000000;
18:47:32:500;-0,0008;0,0011;-0,0038;56,35161266;37,52155754;0,00000000;
18:47:32:502;0,0032;-0,0243;0,0179;56,35161266;37,52155754;0,00000000;
18:47:32:557;0,0032;-0,0243;0,0179;56,35161266;37,52155754;0,00000000;
18:47:32:560;0,0032;-0,0243;0,0179;56,35161266;37,52155754;0,00000000;
18:47:32:562;0,0164;0,0036;-0,0192;56,35161266;37,52155754;0,00000000;
18:47:32:637;0,0164;0,0036;-0,0192;56,35161266;37,52155754;0,00000000;
18:47:32:640;0,0164;0,0036;-0,0192;56,35161266;37,52155754;0,00000000;
18:47:32:641;-0,0181;0,0131;-0,0082;56,35161266;37,52155754;0,00000000;
18:47:32:696;-0,0181;0,0131;-0,0082;56,35161266;37,52155754;0,00000000;
18:47:32:699;-0,0181;0,0131;-0,0082;56,35161266;37,52155754;0,00000000;
18:47:32:702;-0,0083;-0,0115;0,0076;56,35161266;37,52155754;0,00000000;
18:47:32:757;-0,0083;-0,0115;0,0076;56,35161266;37,52155754;0,00000000;
18:47:32:759;-0,0083;-0,0115;0,0076;56,35161266;37,52155754;0,00000000;
18:47:32:762;0,0158;-0,0006;0,0146;56,35161266;37,52155754;0,00000000;
18:47:32:816;0,0158;-0,0006;0,0146;56,35161266;37,52155754;0,00000000;
18:47:32:818;-0,0015;0,0090;-0,0040;56,35161266;37,52155754;0,00000000;
18:47:32:820;-0,0015;0,0090;-0,0040;56,35161266;37,52155754;0,00000000;
18:47:32:842;-0,0006;0,0078;-0,0036;56,35161266;37,52155754;0,00000000;
18:47:32:845;-0,0006;0,0078;-0,0036;56,35161266;37,52155754;0,00000000;
18:47:32:847;-0,0006;0,0078;-0,0036;56,35161266;37,52155754;0,00000000;
18:47:32:898;-0,0006;0,0078;-0,0036;56,35161266;37,52155754;0,00000000;
18:47:32:900;-0,0006;0,0078;-0,0036;56,35161266;37,52155754;0,00000000;
18:47:32:901;-0,0106;0,0040;-0,0139;56,35161266;37,52155754;0,00000000;
18:47:32:959;-0,0106;0,0040;-0,0139;56,35161266;37,52155754;0,00000000;
18:47:32:961;-0,0106;0,0040;-0,0139;56,35161266;37,52155754;0,00000000;
18:47:32:964;-0,0017;-0,0175;0,0210;56,35161266;37,52155754;0,00000000;
18:47:33:020;-0,0017;-0,0175;0,0210;56,35161266;37,52155754;0,00000000;
18:47:33:023;-0,0017;-0,0175;0,0210;56,35161266;37,52155754;0,00000000;
18:47:33:026;0,0153;0,0063;-0,0150;56,35161266;37,52155754;0,00000000;
18:47:33:080;0,0153;0,0063;-0,0150;56,35161266;37,52155754;0,00000000;
18:47:33:084;-0,0064;0,0161;-0,0123;56,35161266;37,52155754;0,00000000;
18:47:33:086;-0,0064;0,0161;-0,0123;56,35161266;37,52155754;0,00000000;
18:47:33:159;-0,0064;0,0161;-0,0123;56,35161266;37,52155754;0,00000000;
18:47:33:163;-0,0064;0,0161;-0,0123;56,35161266;37,52155754;0,00000000;
18:47:33:165;0,0139;-0,0099;0,0195;56,35161266;37,52155754;0,00000000;
18:47:33:220;0,0139;-0,0099;0,0195;56,35161266;37,52155754;0,00000000;
18:47:33:223;0,0139;-0,0099;0,0195;56,35161266;37,52155754;0,00000000;
18:47:33:226;0,0034;0,0135;-0,0092;56,35161266;37,52155754;0,00000000;
18:47:33:280;0,0034;0,0135;-0,0092;56,35161266;37,52155754;0,00000000;
18:47:33:284;0,0034;0,0135;-0,0092;56,35161266;37,52155754;0,00000000;
18:47:33:286;-0,0072;0,0054;-0,0079;56,35161266;37,52155754;0,00000000;
18:47:33:341;-0,0072;0,0054;-0,0079;56,35161266;37,52155754;0,00000000;
18:47:33:345;-0,0072;0,0054;-0,0079;56,35161266;37,52155754;0,00000000;
18:47:33:347;-0,0110;-0,0215;0,0327;56,35161266;37,52155754;0,00000000;
18:47:33:421;-0,0110;-0,0215;0,0327;56,35161266;37,52155754;0,00000000;
18:47:33:424;-0,0110;-0,0215;0,0327;56,35161266;37,52155754;0,00000000;
18:47:33:426;0,0283;0,0064;-0,0113;56,35161266;37,52155754;0,00000000;
18:47:33:481;0,0283;0,0064;-0,0113;56,35161266;37,52155754;0,00000000;
18:47:33:484;0,0283;0,0064;-0,0113;56,35161266;37,52155754;0,00000000;
18:47:33:486;-0,0160;0,0098;-0,0068;56,35161266;37,52155754;0,00000000;
18:47:33:541;-0,0160;0,0098;-0,0068;56,35161266;37,52155754;0,00000000;
18:47:33:545;-0,0160;0,0098;-0,0068;56,35161266;37,52155754;0,00000000;
18:47:33:547;-0,0068;-0,0127;0,0084;56,35161266;37,52155754;0,00000000;
18:47:33:602;-0,0068;-0,0127;0,0084;56,35161266;37,52155754;0,00000000;
18:47:33:605;-0,0068;-0,0127;0,0084;56,35161266;37,52155754;0,00000000;
18:47:33:607;0,0200;0,0027;0,0032;56,35161266;37,52155754;0,00000000;
18:47:33:631;0,0200;0,0027;0,0032;56,35161266;37,52155754;0,00000000;
18:47:33:635;0,0200;0,0027;0,0032;56,35161266;37,52155754;0,00000000;
18:47:33:638;0,0179;0,0028;0,0029;56,35161266;37,52155754;0,00000000;
18:47:33:683;-0,0112;0,0081;-0,0042;56,35161266;37,52155754;0,00000000;
18:47:33:687;-0,0112;0,0081;-0,0042;56,35161266;37,52155754;0,00000000;
18:47:33:690;-0,0112;0,0081;-0,0042;56,35161266;37,52155754;0,00000000;
18:47:33:742;-0,0112;0,0081;-0,0042;56,35161266;37,52155754;0,00000000;
18:47:33:747;-0,0112;0,0081;-0,0042;56,35161266;37,52155754;0,00000000;
18:47:33:749;-0,0075;-0,0067;-0,0272;56,35161266;37,52155754;0,00000000;
18:47:33:802;-0,0075;-0,0067;-0,0272;56,35161266;37,52155754;0,00000000;
18:47:33:804;-0,0075;-0,0067;-0,0272;56,35161266;37,52155754;0,00000000;
18:47:33:806;0,0007;-0,0071;0,0333;56,35161266;37,52155754;0,00000000;
18:47:33:863;0,0007;-0,0071;0,0333;56,35161266;37,52155754;0,00000000;
18:47:33:866;0,0007;-0,0071;0,0333;56,35161266;37,52155754;0,00000000;
18:47:33:868;0,0148;0,0028;-0,0069;56,35161266;37,52155754;0,00000000;
18:47:33:944;0,0148;0,0028;-0,0069;56,35161266;37,52155754;0,00000000;
18:47:33:947;-0,0044;-0,0142;0,0236;56,35161266;37,52155754;0,00000000;
18:47:33:950;-0,0044;-0,0142;0,0236;56,35161266;37,52155754;0,00000000;
18:47:34:004;-0,0044;-0,0142;0,0236;56,35161266;37,52155754;0,00000000;
18:47:34:007;-0,0044;-0,0142;0,0236;56,35161266;37,52155754;0,00000000;
18:47:34:009;0,0219;-0,0072;0,0029;56,35161266;37,52155754;0,00000000;
18:47:34:063;0,0219;-0,0072;0,0029;56,35161266;37,52155754;0,00000000;
18:47:34:065;-0,0121;0,0096;-0,0126;56,35161266;37,52155754;0,00000000;
18:47:34:067;-0,0121;0,0096;-0,0126;56,35161266;37,52155754;0,00000000;
18:47:34:124;-0,0121;0,0096;-0,0126;56,35161266;37,52155754;0,00000000;
18:47:34:127;-0,0121;0,0096;-0,0126;56,35161266;37,52155754;0,00000000;
18:47:34:128;-0,0131;-0,0022;-0,0081;56,35161266;37,52155754;0,00000000;
18:47:34:205;-0,0131;-0,0022;-0,0081;56,35161266;37,52155754;0,00000000;
18:47:34:208;-0,0131;-0,0022;-0,0081;56,35161266;37,52155754;0,00000000;
18:47:34:210;-0,0028;-0,0071;0,0106;56,35161266;37,52155754;0,00000000;
18:47:34:266;-0,0028;-0,0071;0,0106;56,35161266;37,52155754;0,00000000;
18:47:34:269;-0,0028;-0,0071;0,0106;56,35161266;37,52155754;0,00000000;
18:47:34:271;0,0215;-0,0010;-0,0165;56,35161266;37,52155754;0,00000000;
18:47:34:326;0,0215;-0,0010;-0,0165;56,35161266;37,52155754;0,00000000;
18:47:34:330;0,0215;-0,0010;-0,0165;56,35161266;37,52155754;0,00000000;
18:47:34:333;-0,0164;0,0131;-0,0157;56,35161266;37,52155754;0,00000000;
18:47:34:385;-0,0164;0,0131;-0,0157;56,35161266;37,52155754;0,00000000;
18:47:34:388;-0,0036;-0,0044;0,0066;56,35161266;37,52155754;0,00000000;
18:47:34:390;-0,0036;-0,0044;0,0066;56,35161266;37,52155754;0,00000000;
18:47:34:414;-0,0030;-0,0035;0,0058;56,35161266;37,52155754;0,00000000;
18:47:34:419;-0,0030;-0,0035;0,0058;56,35161266;37,52155754;0,00000000;
18:47:34:421;-0,0030;-0,0035;0,0058;56,35161266;37,52155754;0,00000000;
18:47:34:467;-0,0030;-0,0035;0,0058;56,35161266;37,52155754;0,00000000;
18:47:34:469;0,0106;-0,0015;-0,0015;56,35161266;37,52155754;0,00000000;
18:47:34:471;0,0106;-0,0015;-0,0015;56,35161266;37,52155754;0,00000000;
18:47:34:527;0,0106;-0,0015;-0,0015;56,35161266;37,52155754;0,00000000;
18:47:34:530;0,0106;-0,0015;-0,0015;56,35161266;37,52155754;0,00000000;
18:47:34:534;-0,0176;0,0070;-0,0053;56,35161266;37,52155754;0,00000000;
18:47:34:587;-0,0176;0,0070;-0,0053;56,35161266;37,52155754;0,00000000;
18:47:34:590;-0,0176;0,0070;-0,0053;56,35161266;37,52155754;0,00000000;
18:47:34:592;-0,0045;0,0001;-0,0125;56,35161266;37,52155754;0,00000000;
18:47:34:647;-0,0045;0,0001;-0,0125;56,35161266;37,52155754;0,00000000;
18:47:34:650;-0,0045;0,0001;-0,0125;56,35161266;37,52155754;0,00000000;
18:47:34:653;0,0117;-0,0070;0,0272;56,35161266;37,52155754;0,00000000;
18:47:34:728;0,0117;-0,0070;0,0272;56,35161266;37,52155754;0,00000000;
18:47:34:731;0,0117;-0,0070;0,0272;56,35161266;37,52155754;0,00000000;
18:47:34:733;-0,0112;0,0131;-0,0056;56,35161266;37,52155754;0,00000000;
18:47:34:787;-0,0112;0,0131;-0,0056;56,35161266;37,52155754;0,00000000;
18:47:34:792;-0,0064;-0,0070;0,0092;56,35161266;37,52155754;0,00000000;
18:47:34:795;-0,0064;-0,0070;0,0092;56,35161266;37,52155754;0,00000000;
18:47:34:846;-0,0064;-0,0070;0,0092;56,35161266;37,52155754;0,00000000;
18:47:34:848;-0,0064;-0,0070;0,0092;56,35161266;37,52155754;0,00000000;
18:47:34:849;0,0184;-0,0146;0,0078;56,35161266;37,52155754;0,00000000;
18:47:34:907;0,0184;-0,0146;0,0078;56,35161266;37,52155754;0,00000000;
18:47:34:909;0,0184;-0,0146;0,0078;56,35161266;37,52155754;0,00000000;
18:47:34:910;0,0015;0,0185;-0,0218;56,35161266;37,52155754;0,00000000;
18:47:34:989;0,0015;0,0185;-0,0218;56,35161266;37,52155754;0,00000000;
18:47:34:991;0,0015;0,0185;-0,0218;56,35161266;37,52155754;0,00000000;
18:47:34:993;-0,0170;0,0045;-0,0133;56,35161266;37,52155754;0,00000000;
18:47:35:049;-0,0170;0,0045;-0,0133;56,35161266;37,52155754;0,00000000;
18:47:35:051;0,0026;-0,0148;0,0233;56,35161266;37,52155754;0,00000000;
18:47:35:053;0,0026;-0,0148;0,0233;56,35161266;37,52155754;0,00000000;
18:47:35:109;0,0026;-0,0148;0,0233;56,35161266;37,52155754;0,00000000;
18:47:35:112;0,0026;-0,0148;0,0233;56,35161266;37,52155754;0,00000000;
18:47:35:117;0,0274;0,0047;-0,0148;56,35161266;37,52155754;0,00000000;
18:47:35:169;0,0274;0,0047;-0,0148;56,35161266;37,52155754;0,00000000;
18:47:35:171;-0,0178;0,0140;-0,0152;56,35161266;37,52155754;0,00000000;
18:47:35:172;-0,0178;0,0140;-0,0152;56,35161266;37,52155754;0,00000000;
18:47:35:197;-0,0178;0,0140;-0,0152;56,35161266;37,52155754;0,00000000;
18:47:35:202;-0,0154;0,0120;-0,0136;56,35161266;37,52155754;0,00000000;
18:47:35:206;-0,0154;0,0120;-0,0136;56,35161266;37,52155754;0,00000000;
18:47:35:250;-0,0154;0,0120;-0,0136;56,35161266;37,52155754;0,00000000;
18:47:35:251;-0,0003;-0,0038;-0,0195;56,35161266;37,52155754;0,00000000;
18:47:35:253;-0,0003;-0,0038;-0,0195;56,35161266;37,52155754;0,00000000;
18:47:35:308;-0,0003;-0,0038;-0,0195;56,35161266;37,52155754;0,00000000;
18:47:35:309;-0,0003;-0,0038;-0,0195;56,35161266;37,52155754;0,00000000;
18:47:35:310;0,0202;-0,0018;0,0206;56,35161266;37,52155754;0,00000000;
18:47:35:372;0,0202;-0,0018;0,0206;56,35161266;37,52155754;0,00000000;
18:47:35:373;0,0202;-0,0018;0,0206;56,35161266;37,52155754;0,00000000;
18:47:35:375;0,0070;0,0009;-0,0001;56,35161266;37,52155754;0,00000000;
18:47:35:429;0,0070;0,0009;-0,0001;56,35161266;37,52155754;0,00000000;
18:47:35:431;0,0070;0,0009;-0,0001;56,35161266;37,52155754;0,00000000;
18:47:35:432;-0,0107;-0,0025;-0,0189;56,35161266;37,52155754;0,00000000;
18:47:35:509;-0,0107;-0,0025;-0,0189;56,35161266;37,52155754;0,00000000;
18:47:35:511;-0,0107;-0,0025;-0,0189;56,35161266;37,52155754;0,00000000;
18:47:35:512;0,0133;-0,0000;0,0049;56,35161266;37,52155754;0,00000000;
18:47:35:570;0,0133;-0,0000;0,0049;56,35161266;37,52155754;0,00000000;
18:47:35:573;0,0133;-0,0000;0,0049;56,35161266;37,52155754;0,00000000;
18:47:35:575;-0,0186;0,0127;-0,0078;56,35161266;37,52155754;0,00000000;
18:47:35:631;-0,0186;0,0127;-0,0078;56,35161266;37,52155754;0,00000000;
18:47:35:633;-0,0186;0,0127;-0,0078;56,35161266;37,52155754;0,00000000;
18:47:35:635;-0,0073;0,0001;0,0023;56,35161266;37,52155754;0,00000000;
18:47:35:692;-0,0073;0,0001;0,0023;56,35161266;37,52155754;0,00000000;
18:47:35:694;-0,0073;0,0001;0,0023;56,35161266;37,52155754;0,00000000;
18:47:35:696;0,0051;-0,0118;0,0046;56,35161266;37,52155754;0,00000000;
18:47:35:773;0,0051;-0,0118;0,0046;56,35161266;37,52155754;0,00000000;
18:47:35:775;0,0051;-0,0118;0,0046;56,35161266;37,52155754;0,00000000;
18:47:35:778;0,0162;0,0043;-0,0108;56,35161266;37,52155754;0,00000000;
18:47:35:831;0,0162;0,0043;-0,0108;56,35161266;37,52155754;0,00000000;
18:47:35:832;0,0162;0,0043;-0,0108;56,35161266;37,52155754;0,00000000;
18:47:35:834;-0,0134;0,0089;-0,0072;56,35161266;37,52155754;0,00000000;
18:47:35:891;-0,0134;0,0089;-0,0072;56,35161266;37,52155754;0,00000000;
18:47:35:893;-0,0134;0,0089;-0,0072;56,35161266;37,52155754;0,00000000;
18:47:35:894;-0,0102;-0,0124;0,0075;56,35161266;37,52155754;0,00000000;
18:47:35:951;-0,0102;-0,0124;0,0075;56,35161266;37,52155754;0,00000000;
18:47:35:953;-0,0102;-0,0124;0,0075;56,35161266;37,52155754;0,00000000;
18:47:35:954;0,0174;-0,0003;-0,0019;56,35161266;37,52155754;0,00000000;
18:47:35:977;0,0174;-0,0003;-0,0019;56,35161266;37,52155754;0,00000000;
18:47:35:979;0,0174;-0,0003;-0,0019;56,35161266;37,52155754;0,00000000;
18:47:35:980;0,0152;-0,0004;-0,0016;56,35161266;37,52155754;0,00000000;
18:47:36:032;0,0152;-0,0004;-0,0016;56,35161266;37,52155754;0,00000000;
18:47:36:034;0,0152;-0,0004;-0,0016;56,35161266;37,52155754;0,00000000;
18:47:36:036;-0,0113;0,0099;-0,0047;56,35161266;37,52155754;0,00000000;
18:47:36:093;-0,0113;0,0099;-0,0047;56,35161266;37,52155754;0,00000000;
18:47:36:096;-0,0023;-0,0158;-0,0017;56,35161266;37,52155754;0,00000000;
18:47:36:098;-0,0023;-0,0158;-0,0017;56,35161266;37,52155754;0,00000000;
18:47:36:153;-0,0023;-0,0158;-0,0017;56,35161266;37,52155754;0,00000000;
18:47:36:155;-0,0023;-0,0158;-0,0017;56,35161266;37,52155754;0,00000000;
18:47:36:157;0,0078;-0,0007;0,0060;56,35161266;37,52155754;0,00000000;
18:47:36:214;0,0078;-0,0007;0,0060;56,35161266;37,52155754;0,00000000;
18:47:36:218;0,0085;0,0087;-0,0192;56,35161266;37,52155754;0,00000000;
18:47:36:220;0,0085;0,0087;-0,0192;56,35161266;37,52155754;0,00000000;
18:47:36:295;0,0085;0,0087;-0,0192;56,35161266;37,52155754;0,00000000;
18:47:36:297;-0,0169;-0,0156;0,0269;56,35161266;37,52155754;0,00000000;
18:47:36:299;-0,0169;-0,0156;0,0269;56,35161266;37,52155754;0,00000000;
18:47:36:355;-0,0169;-0,0156;0,0269;56,35161266;37,52155754;0,00000000;
18:47:36:357;-0,0169;-0,0156;0,0269;56,35161266;37,52155754;0,00000000;
18:47:36:358;0,0177;-0,0025;-0,0204;56,35161266;37,52155754;0,00000000;
18:47:36:416;0,0177;-0,0025;-0,0204;56,35161266;37,52155754;0,00000000;
18:47:36:418;0,0177;-0,0025;-0,0204;56,35161266;37,52155754;0,00000000;
18:47:36:419;-0,0166;0,0117;-0,0171;56,35161266;37,52155754;0,00000000;
18:47:36:477;-0,0166;0,0117;-0,0171;56,35161266;37,52155754;0,00000000;
18:47:36:480;-0,0166;0,0117;-0,0171;56,35161266;37,52155754;0,00000000;
18:47:36:482;-0,0003;0,0025;0,0025;56,35161266;37,52155754;0,00000000;
18:47:36:556;-0,0003;0,0025;0,0025;56,35161266;37,52155754;0,00000000;
18:47:36:558;-0,0003;0,0025;0,0025;56,35161266;37,52155754;0,00000000;
18:47:36:560;0,0038;-0,0094;0,0214;56,35161266;37,52155754;0,00000000;
18:47:36:616;0,0038;-0,0094;0,0214;56,35161266;37,52155754;0,00000000;
18:47:36:618;0,0038;-0,0094;0,0214;56,35161266;37,52155754;0,00000000;
18:47:36:620;0,0019;0,0161;-0,0203;56,35161266;37,52155754;0,00000000;
18:47:36:677;0,0019;0,0161;-0,0203;56,35161266;37,52155754;0,00000000;
18:47:36:679;-0,0179;0,0001;-0,0216;56,35161266;37,52155754;0,00000000;
18:47:36:681;-0,0179;0,0001;-0,0216;56,35161266;37,52155754;0,00000000;
18:47:36:737;-0,0179;0,0001;-0,0216;56,35161266;37,52155754;0,00000000;
18:47:36:740;-0,0056;-0,0121;0,0176;56,35161266;37,52155754;0,00000000;
18:47:36:741;-0,0056;-0,0121;0,0176;56,35161266;37,52155754;0,00000000;
18:47:36:764;-0,0056;-0,0121;0,0176;56,35161266;37,52155754;0,00000000;
18:47:36:767;-0,0051;-0,0100;0,0157;56,35161266;37,52155754;0,00000000;
18:47:36:772;-0,0051;-0,0100;0,0157;56,35161266;37,52155754;0,00000000;
18:47:36:816;-0,0051;-0,0100;0,0157;56,35161266;37,52155754;0,00000000;
18:47:36:818;-0,0051;-0,0100;0,0157;56,35161266;37,52155754;0,00000000;
18:47:36:820;0,0175;0,0084;-0,0098;56,35161266;37,52155754;0,00000000;
18:47:36:878;0,0175;0,0084;-0,0098;56,35161266;37,52155754;0,00000000;
18:47:36:880;0,0175;0,0084;-0,0098;56,35161266;37,52155754;0,00000000;
18:47:36:882;-0,0153;0,0042;-0,0087;56,35161266;37,52155754;0,00000000;
18:47:36:937;-0,0153;0,0042;-0,0087;56,35161266;37,52155754;0,00000000;
18:47:36:939;-0,0153;0,0042;-0,0087;56,35161266;37,52155754;0,00000000;
18:47:36:941;0,0089;-0,0111;-0,0077;56,35161266;37,52155754;0,00000000;
18:47:36:999;0,0089;-0,0111;-0,0077;56,35161266;37,52155754;0,00000000;
18:47:37:002;0,0040;0,0009;0,0176;56,35161266;37,52155754;0,00000000;
18:47:37:004;0,0040;0,0009;0,0176;56,35161266;37,52155754;0,00000000;
18:47:37:081;0,0040;0,0009;0,0176;56,35161266;37,52155754;0,00000000;
18:47:37:085;0,0040;0,0009;0,0176;56,35161266;37,52155754;0,00000000;
18:47:37:088;-0,0152;0,0061;-0,0170;56,35161266;37,52155754;0,00000000;
18:47:37:140;-0,0152;0,0061;-0,0170;56,35161266;37,52155754;0,00000000;
18:47:37:143;-0,0152;0,0061;-0,0170;56,35161266;37,52155754;0,00000000;
18:47:37:146;0,0017;-0,0136;0,0282;56,35161266;37,52155754;0,00000000;
18:47:37:199;0,0017;-0,0136;0,0282;56,35161266;37,52155754;0,00000000;
18:47:37:202;0,0017;-0,0136;0,0282;56,35161266;37,52155754;0,00000000;
18:47:37:204;0,0261;0,0008;-0,0221;56,35161266;37,52155754;0,00000000;
18:47:37:261;0,0261;0,0008;-0,0221;56,35161266;37,52155754;0,00000000;
18:47:37:264;0,0261;0,0008;-0,0221;56,35161266;37,52155754;0,00000000;
18:47:37:266;-0,0050;0,0091;-0,0054;56,35161266;37,52155754;0,00000000;
18:47:37:342;-0,0050;0,0091;-0,0054;56,35161266;37,52155754;0,00000000;
18:47:37:345;-0,0050;0,0091;-0,0054;56,35161266;37,52155754;0,00000000;
18:47:37:347;-0,0036;-0,0028;-0,0024;56,35161266;37,52155754;0,00000000;
