
time;ax;ay;az;Latitude;Longitude;Speed (m/s);
19:49:02:572;0,0000;0,0000;0,0000;0,00000000;0,00000000;0,00000000;
19:49:02:641;0,0000;0,0000;0,0000;55,90895349;37,55229348;21,90999985;
19:49:02:642;0,0000;0,0000;0,0000;55,90895349;37,55229348;21,90999985;
19:49:02:643;0,0000;0,0000;0,0000;55,90895349;37,55229348;21,90999985;
19:49:02:644;0,0000;0,0000;0,0000;55,90895349;37,55229348;21,90999985;
19:49:02:645;0,0000;0,0000;0,0000;55,90895349;37,55229348;21,90999985;
19:49:02:672;0,0000;0,0000;0,0000;55,90895349;37,55229348;21,90999985;
19:49:02:674;0,0000;0,0000;-0,0000;55,90895349;37,55229348;21,90999985;
19:49:02:716;0,0000;0,0000;-0,0000;55,90895349;37,55229348;21,90999985;
19:49:02:720;0,0000;0,0000;-0,0000;55,90895349;37,55229348;21,90999985;
19:49:02:721;0,0000;0,0000;-0,0000;55,90895349;37,55229348;21,90999985;
19:49:02:722;0,0000;0,0000;-0,0000;55,90895349;37,55229348;21,90999985;
19:49:02:725;0,0000;0,0000;-0,0000;55,90895349;37,55229348;21,90999985;
19:49:02:727;0,0022;-0,0074;0,0021;55,90895349;37,55229348;21,90999985;
19:49:02:752;0,0022;-0,0074;0,0021;55,90895349;37,55229348;21,90999985;
19:49:02:753;0,0023;-0,0034;0,0011;55,90895349;37,55229348;21,90999985;
19:49:02:786;0,0023;-0,0034;0,0011;55,90895349;37,55229348;21,90999985;
19:49:02:787;0,0023;-0,0034;0,0011;55,90895349;37,55229348;21,90999985;
19:49:02:788;0,0023;-0,0034;0,0011;55,90895349;37,55229348;21,90999985;
19:49:02:794;0,0023;-0,0034;0,0011;55,90895349;37,55229348;21,90999985;
19:49:02:796;0,0307;0,0130;0,0046;55,90895349;37,55229348;21,90999985;
19:49:02:835;0,0599;0,0054;0,0736;55,90895349;37,55229348;21,90999985;
19:49:02:845;0,0599;0,0054;0,0736;55,90895349;37,55229348;21,90999985;
19:49:02:874;-0,0212;-0,0286;0,1745;55,90895349;37,55229348;21,90999985;
19:49:02:875;-0,0212;-0,0286;0,1745;55,90895349;37,55229348;21,90999985;
19:49:02:876;-0,0212;-0,0286;0,1745;55,90895349;37,55229348;21,90999985;
19:49:02:878;-0,0212;-0,0286;0,1745;55,90895349;37,55229348;21,90999985;
19:49:02:879;-0,0212;-0,0286;0,1745;55,90895349;37,55229348;21,90999985;
19:49:02:881;-0,0212;-0,0286;0,1745;55,90895349;37,55229348;21,90999985;
19:49:02:882;-0,0212;-0,0286;0,1745;55,90895349;37,55229348;21,90999985;
19:49:02:914;-0,0212;-0,0286;0,1745;55,90895349;37,55229348;21,90999985;
19:49:02:917;-0,0203;-0,0176;0,1396;55,90895349;37,55229348;21,90999985;
19:49:02:954;-0,0203;-0,0176;0,1396;55,90895349;37,55229348;21,90999985;
19:49:02:955;-0,1259;-0,0020;0,0618;55,90895349;37,55229348;21,90999985;
19:49:02:957;-0,1259;-0,0020;0,0618;55,90895349;37,55229348;21,90999985;
19:49:02:958;-0,1259;-0,0020;0,0618;55,90895349;37,55229348;21,90999985;
19:49:02:959;-0,1259;-0,0020;0,0618;55,90895349;37,55229348;21,90999985;
19:49:02:960;-0,1259;-0,0020;0,0618;55,90895349;37,55229348;21,90999985;
19:49:02:994;-0,1259;-0,0020;0,0618;55,90895349;37,55229348;21,90999985;
19:49:02:995;-0,1068;0,0031;0,0515;55,90895349;37,55229348;21,90999985;
19:49:03:036;-0,0534;-0,0008;-0,0983;55,90895349;37,55229348;21,90999985;
19:49:03:039;-0,0534;-0,0008;-0,0983;55,90895349;37,55229348;21,90999985;
19:49:03:042;-0,0534;-0,0008;-0,0983;55,90895349;37,55229348;21,90999985;
19:49:03:044;-0,0534;-0,0008;-0,0983;55,90895349;37,55229348;21,90999985;
19:49:03:046;-0,0534;-0,0008;-0,0983;55,90895349;37,55229348;21,90999985;
19:49:03:076;0,0611;0,0199;-0,1469;55,90895349;37,55229348;21,90999985;
19:49:03:083;0,0611;0,0199;-0,1469;55,90895349;37,55229348;21,90999985;
19:49:03:116;0,0611;0,0199;-0,1469;55,90895349;37,55229348;21,90999985;
19:49:03:120;0,0502;0,0194;-0,1286;55,90895349;37,55229348;21,90999985;
19:49:03:121;0,0502;0,0194;-0,1286;55,90895349;37,55229348;21,90999985;
19:49:03:122;0,0502;0,0194;-0,1286;55,90895349;37,55229348;21,90999985;
19:49:03:124;0,0502;0,0194;-0,1286;55,90895349;37,55229348;21,90999985;
19:49:03:125;0,0502;0,0194;-0,1286;55,90895349;37,55229348;21,90999985;
19:49:03:126;0,0502;0,0194;-0,1286;55,90895349;37,55229348;21,90999985;
19:49:03:155;0,0527;0,0181;-0,2122;55,90895349;37,55229348;21,90999985;
19:49:03:156;0,0527;0,0181;-0,2122;55,90895349;37,55229348;21,90999985;
19:49:03:196;0,0527;0,0181;-0,2122;55,90895349;37,55229348;21,90999985;
19:49:03:197;0,0949;0,0524;-0,1457;55,90895349;37,55229348;21,90999985;
19:49:03:198;0,0949;0,0524;-0,1457;55,90895349;37,55229348;21,90999985;
19:49:03:198;0,0949;0,0524;-0,1457;55,90895349;37,55229348;21,90999985;
19:49:03:199;0,0949;0,0524;-0,1457;55,90895349;37,55229348;21,90999985;
19:49:03:199;0,0949;0,0524;-0,1457;55,90895349;37,55229348;21,90999985;
19:49:03:235;0,0949;0,0524;-0,1457;55,90895349;37,55229348;21,90999985;
19:49:03:237;0,0842;0,0486;-0,1311;55,90895349;37,55229348;21,90999985;
19:49:03:276;0,0842;0,0486;-0,1311;55,90895349;37,55229348;21,90999985;
19:49:03:277;0,0842;0,0486;-0,1311;55,90895349;37,55229348;21,90999985;
19:49:03:278;0,0842;0,0486;-0,1311;55,90895349;37,55229348;21,90999985;
19:49:03:278;0,0842;0,0486;-0,1311;55,90895349;37,55229348;21,90999985;
19:49:03:280;0,0597;0,0363;-0,0549;55,90895349;37,55229348;21,90999985;
19:49:03:317;0,0597;0,0363;-0,0549;55,90895349;37,55229348;21,90999985;
19:49:03:319;-0,0277;-0,0019;0,1322;55,90895349;37,55229348;21,90999985;
19:49:03:356;-0,0277;-0,0019;0,1322;55,90895349;37,55229348;21,90999985;
19:49:03:358;-0,0277;-0,0019;0,1322;55,90895349;37,55229348;21,90999985;
19:49:03:360;-0,0277;-0,0019;0,1322;55,90895349;37,55229348;21,90999985;
19:49:03:362;-0,0277;-0,0019;0,1322;55,90895349;37,55229348;21,90999985;
19:49:03:364;-0,0277;-0,0019;0,1322;55,90895349;37,55229348;21,90999985;
19:49:03:366;0,0080;0,0374;0,1029;55,90895349;37,55229348;21,90999985;
19:49:03:400;0,0080;0,0374;0,1029;55,90895349;37,55229348;21,90999985;
19:49:03:402;0,0505;0,0241;0,0491;55,90895349;37,55229348;21,90999985;
19:49:03:419;0,0505;0,0241;0,0491;55,90895349;37,55229348;21,90999985;
19:49:03:421;0,0505;0,0241;0,0491;55,90895349;37,55229348;21,90999985;
19:49:03:423;0,0505;0,0241;0,0491;55,90895349;37,55229348;21,90999985;
19:49:03:439;0,0451;0,0256;0,0437;55,90895349;37,55229348;21,90999985;
19:49:03:442;0,0451;0,0256;0,0437;55,90895349;37,55229348;21,90999985;
19:49:03:478;0,0030;0,0093;0,0402;55,90895349;37,55229348;21,90999985;
19:49:03:481;0,0030;0,0093;0,0402;55,90895349;37,55229348;21,90999985;
19:49:03:507;0,0030;0,0093;0,0402;55,90895349;37,55229348;21,90999985;
19:49:03:512;0,0030;0,0093;0,0402;55,90895349;37,55229348;21,90999985;
19:49:03:515;0,0030;0,0093;0,0402;55,90895349;37,55229348;21,90999985;
19:49:03:518;0,0030;0,0093;0,0402;55,90895349;37,55229348;21,90999985;
19:49:03:520;0,0030;0,0093;0,0402;55,90895349;37,55229348;21,90999985;
19:49:03:521;0,0030;0,0093;0,0402;55,90895349;37,55229348;21,90999985;
19:49:03:523;-0,0014;0,0111;0,0356;55,90895349;37,55229348;21,90999985;
19:49:03:558;-0,0014;0,0111;0,0356;55,90895349;37,55229348;21,90999985;
19:49:03:560;-0,0699;-0,0220;-0,0074;55,90895349;37,55229348;21,90999985;
19:49:03:601;-0,0699;-0,0220;-0,0074;55,90895349;37,55229348;21,90999985;
19:49:03:603;-0,0699;-0,0220;-0,0074;55,90895349;37,55229348;21,90999985;
19:49:03:605;-0,0699;-0,0220;-0,0074;55,90895349;37,55229348;21,90999985;
19:49:03:606;-0,0699;-0,0220;-0,0074;55,90895349;37,55229348;21,90999985;
19:49:03:608;-0,0699;-0,0220;-0,0074;55,90895349;37,55229348;21,90999985;
19:49:03:609;0,0046;-0,0266;-0,0527;55,90895349;37,55229348;21,90999985;
19:49:03:639;0,0046;-0,0266;-0,0527;55,90895349;37,55229348;21,90999985;
19:49:03:641;0,0332;-0,0401;-0,0853;55,90895349;37,55229348;21,90999985;
19:49:03:679;0,0332;-0,0401;-0,0853;55,90895349;37,55229348;21,90999985;
19:49:03:682;0,0332;-0,0401;-0,0853;55,90895349;37,55229348;21,90999985;
19:49:03:684;0,0332;-0,0401;-0,0853;55,90895349;37,55229348;21,90999985;
19:49:03:685;0,0332;-0,0401;-0,0853;55,90895349;37,55229348;21,90999985;
19:49:03:686;0,0230;-0,0314;-0,0760;55,90895349;37,55229348;21,90999985;
19:49:03:718;0,0230;-0,0314;-0,0760;55,90895349;37,55229348;21,90999985;
19:49:03:720;0,0514;-0,0559;-0,0994;55,90895349;37,55229348;21,90999985;
19:49:03:760;0,0514;-0,0559;-0,0994;55,90895349;37,55229348;21,90999985;
19:49:03:761;0,0514;-0,0559;-0,0994;55,90895349;37,55229348;21,90999985;
19:49:03:763;0,0514;-0,0559;-0,0994;55,90895349;37,55229348;21,90999985;
19:49:03:764;0,0514;-0,0559;-0,0994;55,90895349;37,55229348;21,90999985;
19:49:03:765;0,0514;-0,0559;-0,0994;55,90895349;37,55229348;21,90999985;
19:49:03:766;0,0514;-0,0559;-0,0994;55,90895349;37,55229348;21,90999985;
19:49:03:767;0,0514;-0,0559;-0,0994;55,90895349;37,55229348;21,90999985;
19:49:03:768;0,0746;-0,0737;-0,0393;55,90895349;37,55229348;21,90999985;
19:49:03:799;0,0746;-0,0737;-0,0393;55,90895349;37,55229348;21,90999985;
19:49:03:800;0,0648;-0,0600;-0,0349;55,90895349;37,55229348;21,90999985;
19:49:03:840;0,0648;-0,0600;-0,0349;55,90895349;37,55229348;21,90999985;
19:49:03:842;0,0136;-0,0717;0,0315;55,90895349;37,55229348;21,90999985;
19:49:03:846;0,0136;-0,0717;0,0315;55,90895349;37,55229348;21,90999985;
19:49:03:848;0,0136;-0,0717;0,0315;55,90895349;37,55229348;21,90999985;
19:49:03:852;0,0136;-0,0717;0,0315;55,90895349;37,55229348;21,90999985;
19:49:03:854;0,0136;-0,0717;0,0315;55,90895349;37,55229348;21,90999985;
19:49:03:880;0,0136;-0,0717;0,0315;55,90895349;37,55229348;21,90999985;
19:49:03:883;0,0125;-0,0601;0,0281;55,90895349;37,55229348;21,90999985;
19:49:03:919;0,0125;-0,0601;0,0281;55,90895349;37,55229348;21,90999985;
19:49:03:920;0,0125;-0,0601;0,0281;55,90895349;37,55229348;21,90999985;
19:49:03:921;0,0125;-0,0601;0,0281;55,90895349;37,55229348;21,90999985;
19:49:03:922;0,0125;-0,0601;0,0281;55,90895349;37,55229348;21,90999985;
19:49:03:924;0,0192;-0,1288;0,0499;55,90895349;37,55229348;21,90999985;
19:49:03:960;0,0192;-0,1288;0,0499;55,90895349;37,55229348;21,90999985;
19:49:03:961;0,0283;-0,1782;0,1190;55,90895349;37,55229348;21,90999985;
19:49:04:000;0,0283;-0,1782;0,1190;55,90895349;37,55229348;21,90999985;
19:49:04:004;0,0235;-0,1546;0,1059;55,90895349;37,55229348;21,90999985;
19:49:04:007;0,0235;-0,1546;0,1059;55,90895349;37,55229348;21,90999985;
19:49:04:008;0,0235;-0,1546;0,1059;55,90895349;37,55229348;21,90999985;
19:49:04:009;0,0235;-0,1546;0,1059;55,90895349;37,55229348;21,90999985;
19:49:04:011;0,0235;-0,1546;0,1059;55,90895349;37,55229348;21,90999985;
19:49:04:012;0,0235;-0,1546;0,1059;55,90895349;37,55229348;21,90999985;
19:49:04:039;0,0235;-0,1546;0,1059;55,90895349;37,55229348;21,90999985;
19:49:04:040;-0,0501;-0,1998;-0,0236;55,90895349;37,55229348;21,90999985;
19:49:04:067;-0,0501;-0,1998;-0,0236;55,90895349;37,55229348;21,90999985;
19:49:04:069;-0,0501;-0,1998;-0,0236;55,90895349;37,55229348;21,90999985;
19:49:04:070;-0,0501;-0,1998;-0,0236;55,90895349;37,55229348;21,90999985;
19:49:04:080;-0,0501;-0,1998;-0,0236;55,90895349;37,55229348;21,90999985;
19:49:04:082;-0,0496;-0,2195;-0,0350;55,90895349;37,55229348;21,90999985;
19:49:04:120;-0,0496;-0,2195;-0,0350;55,90895349;37,55229348;21,90999985;
19:49:04:122;0,0082;-0,1866;-0,0466;55,90895349;37,55229348;21,90999985;
19:49:04:155;0,0082;-0,1866;-0,0466;55,90895349;37,55229348;21,90999985;
19:49:04:156;0,0082;-0,1866;-0,0466;55,90895349;37,55229348;21,90999985;
19:49:04:158;0,0082;-0,1866;-0,0466;55,90895349;37,55229348;21,90999985;
19:49:04:161;0,0082;-0,1866;-0,0466;55,90895349;37,55229348;21,90999985;
19:49:04:163;0,0080;-0,1618;-0,0412;55,90895349;37,55229348;21,90999985;
19:49:04:165;0,0080;-0,1618;-0,0412;55,90895349;37,55229348;21,90999985;
19:49:04:202;0,0080;-0,1618;-0,0412;55,90895349;37,55229348;21,90999985;
19:49:04:203;0,0279;-0,1663;0,0528;55,90895349;37,55229348;21,90999985;
19:49:04:241;0,0279;-0,1663;0,0528;55,90895349;37,55229348;21,90999985;
19:49:04:244;0,0184;-0,1440;0,0470;55,90895349;37,55229348;21,90999985;
19:49:04:249;0,0184;-0,1440;0,0470;55,90895349;37,55229348;21,90999985;
19:49:04:251;0,0184;-0,1440;0,0470;55,90895349;37,55229348;21,90999985;
19:49:04:252;0,0184;-0,1440;0,0470;55,90895349;37,55229348;21,90999985;
19:49:04:254;0,0184;-0,1440;0,0470;55,90895349;37,55229348;21,90999985;
19:49:04:256;0,0184;-0,1440;0,0470;55,90895349;37,55229348;21,90999985;
19:49:04:283;0,0184;-0,1440;0,0470;55,90895349;37,55229348;21,90999985;
19:49:04:285;-0,0372;-0,1244;0,0681;55,90895349;37,55229348;21,90999985;
19:49:04:322;-0,0372;-0,1244;0,0681;55,90895349;37,55229348;21,90999985;
19:49:04:325;-0,0372;-0,1244;0,0681;55,90895349;37,55229348;21,90999985;
19:49:04:326;-0,0372;-0,1244;0,0681;55,90895349;37,55229348;21,90999985;
19:49:04:328;-0,0372;-0,1244;0,0681;55,90895349;37,55229348;21,90999985;
19:49:04:331;-0,0407;-0,0938;-0,0052;55,90895349;37,55229348;21,90999985;
19:49:04:363;-0,0407;-0,0938;-0,0052;55,90895349;37,55229348;21,90999985;
19:49:04:365;0,0298;-0,0592;-0,0740;55,90895349;37,55229348;21,90999985;
19:49:04:402;0,0298;-0,0592;-0,0740;55,90895349;37,55229348;21,90999985;
19:49:04:406;0,0210;-0,0488;-0,0657;55,90895349;37,55229348;21,90999985;
19:49:04:408;0,0210;-0,0488;-0,0657;55,90895349;37,55229348;21,90999985;
19:49:04:410;0,0210;-0,0488;-0,0657;55,90895349;37,55229348;21,90999985;
19:49:04:412;0,0210;-0,0488;-0,0657;55,90895349;37,55229348;21,90999985;
19:49:04:414;0,0210;-0,0488;-0,0657;55,90895349;37,55229348;21,90999985;
19:49:04:417;0,0210;-0,0488;-0,0657;55,90895349;37,55229348;21,90999985;
19:49:04:442;0,0210;-0,0488;-0,0657;55,90895349;37,55229348;21,90999985;
19:49:04:444;0,0148;-0,0404;-0,0583;55,90895349;37,55229348;21,90999985;
19:49:04:482;-0,0038;-0,0408;-0,0368;55,90895349;37,55229348;21,90999985;
19:49:04:484;-0,0038;-0,0408;-0,0368;55,90895349;37,55229348;21,90999985;
19:49:04:485;-0,0038;-0,0408;-0,0368;55,90895349;37,55229348;21,90999985;
19:49:04:486;-0,0038;-0,0408;-0,0368;55,90895349;37,55229348;21,90999985;
19:49:04:486;-0,0038;-0,0408;-0,0368;55,90895349;37,55229348;21,90999985;
19:49:04:487;-0,0038;-0,0408;-0,0368;55,90895349;37,55229348;21,90999985;
19:49:04:521;-0,0038;-0,0408;-0,0368;55,90895349;37,55229348;21,90999985;
19:49:04:522;0,0447;-0,0130;0,0335;55,90895349;37,55229348;21,90999985;
19:49:04:562;0,0447;-0,0130;0,0335;55,90895349;37,55229348;21,90999985;
19:49:04:564;0,0447;-0,0130;0,0335;55,90895349;37,55229348;21,90999985;
19:49:04:565;0,0447;-0,0130;0,0335;55,90895349;37,55229348;21,90999985;
19:49:04:567;0,0447;-0,0130;0,0335;55,90895349;37,55229348;21,90999985;
19:49:04:569;0,0746;0,0245;-0,0394;55,90895349;37,55229348;21,90999985;
19:49:04:602;0,0746;0,0245;-0,0394;55,90895349;37,55229348;21,90999985;
19:49:04:603;0,0950;-0,0434;0,0577;55,90895349;37,55229348;21,90999985;
19:49:04:644;0,0950;-0,0434;0,0577;55,90895349;37,55229348;21,90999985;
19:49:04:645;0,0889;-0,0330;0,0518;55,90895349;37,55229348;21,90999985;
19:49:04:647;0,0889;-0,0330;0,0518;55,90895349;37,55229348;21,90999985;
19:49:04:648;0,0889;-0,0330;0,0518;55,90895349;37,55229348;21,90999985;
19:49:04:649;0,0889;-0,0330;0,0518;55,90895349;37,55229348;21,90999985;
19:49:04:650;0,0889;-0,0330;0,0518;55,90895349;37,55229348;21,90999985;
19:49:04:651;0,0889;-0,0330;0,0518;55,90895349;37,55229348;21,90999985;
19:49:04:684;0,0889;-0,0330;0,0518;55,90895349;37,55229348;21,90999985;
19:49:04:686;0,0763;-0,0264;0,0461;55,90895349;37,55229348;21,90999985;
19:49:04:716;0,0763;-0,0264;0,0461;55,90895349;37,55229348;21,90999985;
19:49:04:718;0,0763;-0,0264;0,0461;55,90895349;37,55229348;21,90999985;
19:49:04:719;0,0763;-0,0264;0,0461;55,90895349;37,55229348;21,90999985;
19:49:04:723;0,0763;-0,0264;0,0461;55,90895349;37,55229348;21,90999985;
19:49:04:724;-0,1044;-0,0328;0,2526;55,90895349;37,55229348;21,90999985;
19:49:04:763;-0,1044;-0,0328;0,2526;55,90895349;37,55229348;21,90999985;
19:49:04:765;-0,2277;-0,0164;0,1137;55,90895349;37,55229348;21,90999985;
19:49:04:804;-0,2277;-0,0164;0,1137;55,90895349;37,55229348;21,90999985;
19:49:04:805;-0,2277;-0,0164;0,1137;55,90895349;37,55229348;21,90999985;
19:49:04:807;-0,2277;-0,0164;0,1137;55,90895349;37,55229348;21,90999985;
19:49:04:808;-0,2277;-0,0164;0,1137;55,90895349;37,55229348;21,90999985;
19:49:04:809;-0,2277;-0,0164;0,1137;55,90895349;37,55229348;21,90999985;
19:49:04:809;-0,0871;0,0095;-0,1161;55,90895349;37,55229348;21,90999985;
19:49:04:844;-0,0871;0,0095;-0,1161;55,90895349;37,55229348;21,90999985;
19:49:04:845;-0,0271;0,0231;-0,0656;55,90895349;37,55229348;21,90999985;
19:49:04:884;-0,0271;0,0231;-0,0656;55,90895349;37,55229348;21,90999985;
19:49:04:885;-0,0306;0,0242;-0,0639;55,90895349;37,55229348;21,90999985;
19:49:04:887;-0,0306;0,0242;-0,0639;55,90895349;37,55229348;21,90999985;
19:49:04:888;-0,0306;0,0242;-0,0639;55,90895349;37,55229348;21,90999985;
19:49:04:889;-0,0306;0,0242;-0,0639;55,90895349;37,55229348;21,90999985;
19:49:04:890;-0,0306;0,0242;-0,0639;55,90895349;37,55229348;21,90999985;
19:49:04:890;-0,0306;0,0242;-0,0639;55,90895349;37,55229348;21,90999985;
19:49:04:924;-0,0306;0,0242;-0,0639;55,90895349;37,55229348;21,90999985;
19:49:04:925;-0,0303;0,0264;-0,0620;55,90895349;37,55229348;21,90999985;
19:49:04:967;-0,0303;0,0264;-0,0620;55,90895349;37,55229348;21,90999985;
19:49:04:968;-0,0303;0,0264;-0,0620;55,90895349;37,55229348;21,90999985;
19:49:04:970;-0,0303;0,0264;-0,0620;55,90895349;37,55229348;21,90999985;
19:49:04:971;-0,0303;0,0264;-0,0620;55,90895349;37,55229348;21,90999985;
19:49:04:973;0,0569;0,0503;-0,0478;55,90895349;37,55229348;21,90999985;
19:49:05:004;0,0569;0,0503;-0,0478;55,90895349;37,55229348;21,90999985;
19:49:05:006;0,0165;0,0355;-0,1204;55,90895349;37,55229348;21,90999985;
19:49:05:049;0,0165;0,0355;-0,1204;55,90895349;37,55229348;21,90999985;
19:49:05:050;0,0160;0,0382;-0,1171;55,90895349;37,55229348;21,90999985;
19:49:05:052;0,0160;0,0382;-0,1171;55,90895349;37,55229348;21,90999985;
19:49:05:053;0,0160;0,0382;-0,1171;55,90895349;37,55229348;21,90999985;
19:49:05:054;0,0160;0,0382;-0,1171;55,90895349;37,55229348;21,90999985;
19:49:05:055;0,0160;0,0382;-0,1171;55,90895349;37,55229348;21,90999985;
19:49:05:056;0,0160;0,0382;-0,1171;55,90895349;37,55229348;21,90999985;
19:49:05:085;-0,0172;0,0693;0,0586;55,90895349;37,55229348;21,90999985;
19:49:05:086;-0,0172;0,0693;0,0586;55,90895349;37,55229348;21,90999985;
19:49:05:127;-0,0172;0,0693;0,0586;55,90895349;37,55229348;21,90999985;
19:49:05:130;-0,0426;0,0583;0,0503;55,90895349;37,55229348;21,90999985;
19:49:05:135;-0,0426;0,0583;0,0503;55,90895349;37,55229348;21,90999985;
19:49:05:136;-0,0426;0,0583;0,0503;55,90895349;37,55229348;21,90999985;
19:49:05:138;-0,0426;0,0583;0,0503;55,90895349;37,55229348;21,90999985;
19:49:05:140;-0,0426;0,0583;0,0503;55,90895349;37,55229348;21,90999985;
19:49:05:170;-0,0426;0,0583;0,0503;55,90895349;37,55229348;21,90999985;
19:49:05:173;-0,0388;0,0556;0,0449;55,90895349;37,55229348;21,90999985;
19:49:05:207;-0,0388;0,0556;0,0449;55,90895349;37,55229348;21,90999985;
19:49:05:209;-0,0388;0,0556;0,0449;55,90895349;37,55229348;21,90999985;
19:49:05:210;-0,0388;0,0556;0,0449;55,90895349;37,55229348;21,90999985;
19:49:05:212;-0,0388;0,0556;0,0449;55,90895349;37,55229348;21,90999985;
19:49:05:215;0,0100;0,0472;0,0451;55,90895349;37,55229348;21,90999985;
19:49:05:246;0,0100;0,0472;0,0451;55,90895349;37,55229348;21,90999985;
19:49:05:247;-0,0817;0,0351;-0,0392;55,90895349;37,55229348;21,90999985;
19:49:05:288;-0,0817;0,0351;-0,0392;55,90895349;37,55229348;21,90999985;
19:49:05:289;-0,0731;0,0336;-0,0347;55,90895349;37,55229348;21,90999985;
19:49:05:291;-0,0731;0,0336;-0,0347;55,90895349;37,55229348;21,90999985;
19:49:05:292;-0,0731;0,0336;-0,0347;55,90895349;37,55229348;21,90999985;
19:49:05:293;-0,0731;0,0336;-0,0347;55,90895349;37,55229348;21,90999985;
19:49:05:294;-0,0731;0,0336;-0,0347;55,90895349;37,55229348;21,90999985;
19:49:05:295;-0,0731;0,0336;-0,0347;55,90895349;37,55229348;21,90999985;
19:49:05:326;-0,0731;0,0336;-0,0347;55,90895349;37,55229348;21,90999985;
19:49:05:329;-0,0190;0,0310;0,0204;55,90895349;37,55229348;21,90999985;
19:49:05:364;-0,0190;0,0310;0,0204;55,90895349;37,55229348;21,90999985;
19:49:05:366;-0,0190;0,0310;0,0204;55,90895349;37,55229348;21,90999985;
19:49:05:369;-0,0190;0,0310;0,0204;55,90895349;37,55229348;21,90999985;
19:49:05:370;-0,0135;0,0233;-0,0208;55,90895349;37,55229348;21,90999985;
19:49:05:373;-0,0135;0,0233;-0,0208;55,90895349;37,55229348;21,90999985;
19:49:05:408;-0,0135;0,0233;-0,0208;55,90895349;37,55229348;21,90999985;
19:49:05:409;0,0320;0,0578;-0,0446;55,90895349;37,55229348;21,90999985;
19:49:05:451;0,0320;0,0578;-0,0446;55,90895349;37,55229348;21,90999985;
19:49:05:454;0,0319;0,0517;-0,0395;55,90895349;37,55229348;21,90999985;
19:49:05:456;0,0319;0,0517;-0,0395;55,90895349;37,55229348;21,90999985;
19:49:05:458;0,0319;0,0517;-0,0395;55,90895349;37,55229348;21,90999985;
19:49:05:459;0,0319;0,0517;-0,0395;55,90895349;37,55229348;21,90999985;
19:49:05:461;0,0319;0,0517;-0,0395;55,90895349;37,55229348;21,90999985;
19:49:05:463;0,0319;0,0517;-0,0395;55,90895349;37,55229348;21,90999985;
19:49:05:488;0,0319;0,0517;-0,0395;55,90895349;37,55229348;21,90999985;
19:49:05:491;0,0783;0,0135;-0,0216;55,90895349;37,55229348;21,90999985;
19:49:05:528;0,0783;0,0135;-0,0216;55,90895349;37,55229348;21,90999985;
19:49:05:531;-0,0175;0,0514;0,1234;55,90895349;37,55229348;21,90999985;
19:49:05:534;-0,0175;0,0514;0,1234;55,90895349;37,55229348;21,90999985;
19:49:05:535;-0,0175;0,0514;0,1234;55,90895349;37,55229348;21,90999985;
19:49:05:537;-0,0175;0,0514;0,1234;55,90895349;37,55229348;21,90999985;
19:49:05:539;-0,0175;0,0514;0,1234;55,90895349;37,55229348;21,90999985;
19:49:05:568;-0,0175;0,0514;0,1234;55,90895349;37,55229348;21,90999985;
19:49:05:571;-0,0158;0,0498;0,1100;55,90895349;37,55229348;21,90999985;
19:49:05:609;-0,0158;0,0498;0,1100;55,90895349;37,55229348;21,90999985;
19:49:05:611;-0,0158;0,0498;0,1100;55,90895349;37,55229348;21,90999985;
19:49:05:613;-0,0158;0,0498;0,1100;55,90895349;37,55229348;21,90999985;
19:49:05:615;-0,0158;0,0498;0,1100;55,90895349;37,55229348;21,90999985;
19:49:05:618;-0,0775;0,0282;-0,0317;55,90895349;37,55229348;21,90999985;
19:49:05:650;-0,0775;0,0282;-0,0317;55,90895349;37,55229348;21,90999985;
19:49:05:652;0,0121;0,0525;-0,0618;55,90895349;37,55229348;21,90999985;
19:49:05:692;0,0121;0,0525;-0,0618;55,90895349;37,55229348;21,90999985;
19:49:05:694;0,0089;0,0517;-0,0547;55,90895349;37,55229348;21,90999985;
19:49:05:697;0,0089;0,0517;-0,0547;55,90895349;37,55229348;21,90999985;
19:49:05:699;0,0089;0,0517;-0,0547;55,90895349;37,55229348;21,90999985;
19:49:05:701;0,0089;0,0517;-0,0547;55,90895349;37,55229348;21,90999985;
19:49:05:704;0,0089;0,0517;-0,0547;55,90895349;37,55229348;21,90999985;
19:49:05:705;0,0089;0,0517;-0,0547;55,90895349;37,55229348;21,90999985;
19:49:05:730;0,0089;0,0517;-0,0547;55,90895349;37,55229348;21,90999985;
19:49:05:731;-0,0046;0,0298;-0,0129;55,90895349;37,55229348;21,90999985;
19:49:05:769;-0,0046;0,0298;-0,0129;55,90895349;37,55229348;21,90999985;
19:49:05:774;0,0387;0,0157;0,0605;55,90895349;37,55229348;21,90999985;
19:49:05:775;0,0387;0,0157;0,0605;55,90895349;37,55229348;21,90999985;
19:49:05:776;0,0387;0,0157;0,0605;55,90895349;37,55229348;21,90999985;
19:49:05:776;0,0387;0,0157;0,0605;55,90895349;37,55229348;21,90999985;
19:49:05:777;0,0387;0,0157;0,0605;55,90895349;37,55229348;21,90999985;
19:49:05:809;0,0387;0,0157;0,0605;55,90895349;37,55229348;21,90999985;
19:49:05:810;0,0360;0,0165;0,0540;55,90895349;37,55229348;21,90999985;
19:49:05:850;0,0360;0,0165;0,0540;55,90895349;37,55229348;21,90999985;
19:49:05:852;0,0360;0,0165;0,0540;55,90895349;37,55229348;21,90999985;
19:49:05:853;0,0360;0,0165;0,0540;55,90895349;37,55229348;21,90999985;
19:49:05:855;0,0360;0,0165;0,0540;55,90895349;37,55229348;21,90999985;
19:49:05:856;0,0646;0,0341;0,0290;55,90895349;37,55229348;21,90999985;
19:49:05:890;0,0646;0,0341;0,0290;55,90895349;37,55229348;21,90999985;
19:49:05:892;-0,0199;0,0231;-0,0153;55,90895349;37,55229348;21,90999985;
19:49:05:930;-0,0199;0,0231;-0,0153;55,90895349;37,55229348;21,90999985;
19:49:05:932;-0,0156;0,0232;-0,0134;55,90895349;37,55229348;21,90999985;
19:49:05:935;-0,0156;0,0232;-0,0134;55,90895349;37,55229348;21,90999985;
19:49:05:936;-0,0156;0,0232;-0,0134;55,90895349;37,55229348;21,90999985;
19:49:05:937;-0,0156;0,0232;-0,0134;55,90895349;37,55229348;21,90999985;
19:49:05:939;-0,0156;0,0232;-0,0134;55,90895349;37,55229348;21,90999985;
19:49:05:940;-0,0156;0,0232;-0,0134;55,90895349;37,55229348;21,90999985;
19:49:05:969;-0,0156;0,0232;-0,0134;55,90895349;37,55229348;21,90999985;
19:49:05:971;-0,0404;-0,0422;-0,0691;55,90895349;37,55229348;21,90999985;
19:49:06:011;-0,0404;-0,0422;-0,0691;55,90895349;37,55229348;21,90999985;
19:49:06:015;-0,0667;-0,0565;-0,0420;55,90895349;37,55229348;21,90999985;
19:49:06:018;-0,0667;-0,0565;-0,0420;55,90895349;37,55229348;21,90999985;
19:49:06:020;-0,0667;-0,0565;-0,0420;55,90895349;37,55229348;21,90999985;
19:49:06:022;-0,0667;-0,0565;-0,0420;55,90895349;37,55229348;21,90999985;
19:49:06:024;-0,0667;-0,0565;-0,0420;55,90895349;37,55229348;21,90999985;
19:49:06:051;-0,0667;-0,0565;-0,0420;55,90895349;37,55229348;21,90999985;
19:49:06:053;-0,0581;-0,0463;-0,0371;55,90895349;37,55229348;21,90999985;
19:49:06:091;-0,0581;-0,0463;-0,0371;55,90895349;37,55229348;21,90999985;
19:49:06:092;-0,0174;-0,0345;0,0546;55,90895349;37,55229348;21,90999985;
19:49:06:093;-0,0174;-0,0345;0,0546;55,90895349;37,55229348;21,90999985;
19:49:06:094;-0,0174;-0,0345;0,0546;55,90895349;37,55229348;21,90999985;
19:49:06:096;-0,0174;-0,0345;0,0546;55,90895349;37,55229348;21,90999985;
19:49:06:096;-0,0174;-0,0345;0,0546;55,90895349;37,55229348;21,90999985;
19:49:06:131;-0,0174;-0,0345;0,0546;55,90895349;37,55229348;21,90999985;
19:49:06:134;-0,0140;-0,0277;0,0488;55,90895349;37,55229348;21,90999985;
19:49:06:173;-0,0140;-0,0277;0,0488;55,90895349;37,55229348;21,90999985;
19:49:06:175;0,0784;-0,0542;0,0299;55,90895349;37,55229348;21,90999985;
19:49:06:177;0,0784;-0,0542;0,0299;55,90895349;37,55229348;21,90999985;
19:49:06:179;0,0784;-0,0542;0,0299;55,90895349;37,55229348;21,90999985;
19:49:06:180;0,0784;-0,0542;0,0299;55,90895349;37,55229348;21,90999985;
19:49:06:182;0,0784;-0,0542;0,0299;55,90895349;37,55229348;21,90999985;
19:49:06:212;0,0784;-0,0542;0,0299;55,90895349;37,55229348;21,90999985;
19:49:06:215;-0,0245;-0,0024;0,1358;55,90895349;37,55229348;21,90999985;
19:49:06:251;-0,0245;-0,0024;0,1358;55,90895349;37,55229348;21,90999985;
19:49:06:253;-0,0245;-0,0024;0,1358;55,90895349;37,55229348;21,90999985;
19:49:06:254;-0,0245;-0,0024;0,1358;55,90895349;37,55229348;21,90999985;
19:49:06:256;-0,0245;-0,0024;0,1358;55,90895349;37,55229348;21,90999985;
19:49:06:256;-0,0482;-0,0164;-0,0331;55,90895349;37,55229348;21,90999985;
19:49:06:292;-0,0482;-0,0164;-0,0331;55,90895349;37,55229348;21,90999985;
19:49:06:293;0,0344;0,0180;-0,1235;55,90895349;37,55229348;21,90999985;
19:49:06:335;0,0344;0,0180;-0,1235;55,90895349;37,55229348;21,90999985;
19:49:06:338;0,0295;0,0187;-0,1097;55,90895349;37,55229348;21,90999985;
19:49:06:340;0,0295;0,0187;-0,1097;55,90895349;37,55229348;21,90999985;
19:49:06:342;0,0295;0,0187;-0,1097;55,90895349;37,55229348;21,90999985;
19:49:06:344;0,0295;0,0187;-0,1097;55,90895349;37,55229348;21,90999985;
19:49:06:346;0,0295;0,0187;-0,1097;55,90895349;37,55229348;21,90999985;
19:49:06:348;0,0295;0,0187;-0,1097;55,90895349;37,55229348;21,90999985;
19:49:06:374;0,0295;0,0187;-0,1097;55,90895349;37,55229348;21,90999985;
19:49:06:377;0,0246;0,0201;-0,0973;55,90895349;37,55229348;21,90999985;
19:49:06:413;0,0246;0,0201;-0,0973;55,90895349;37,55229348;21,90999985;
19:49:06:416;0,0246;0,0201;-0,0973;55,90895349;37,55229348;21,90999985;
19:49:06:418;0,0246;0,0201;-0,0973;55,90895349;37,55229348;21,90999985;
19:49:06:420;0,0246;0,0201;-0,0973;55,90895349;37,55229348;21,90999985;
19:49:06:421;0,0246;0,0201;-0,0973;55,90895349;37,55229348;21,90999985;
19:49:06:422;-0,0160;-0,0240;0,0025;55,90895349;37,55229348;21,90999985;
19:49:06:454;0,0017;-0,0048;0,1302;55,90895349;37,55229348;21,90999985;
19:49:06:457;0,0017;-0,0048;0,1302;55,90895349;37,55229348;21,90999985;
19:49:06:495;0,0017;-0,0048;0,1302;55,90895349;37,55229348;21,90999985;
19:49:06:497;0,0017;-0,0048;0,1302;55,90895349;37,55229348;21,90999985;
19:49:06:499;0,0017;-0,0048;0,1302;55,90895349;37,55229348;21,90999985;
19:49:06:501;0,0017;-0,0048;0,1302;55,90895349;37,55229348;21,90999985;
19:49:06:502;0,0469;-0,0089;0,0500;55,90895349;37,55229348;21,90999985;
19:49:06:534;0,0469;-0,0089;0,0500;55,90895349;37,55229348;21,90999985;
19:49:06:537;0,0536;0,0115;0,0481;55,90895349;37,55229348;21,90999985;
19:49:06:576;0,0536;0,0115;0,0481;55,90895349;37,55229348;21,90999985;
19:49:06:578;0,0481;0,0117;0,0429;55,90895349;37,55229348;21,90999985;
19:49:06:581;0,0481;0,0117;0,0429;55,90895349;37,55229348;21,90999985;
19:49:06:583;0,0481;0,0117;0,0429;55,90895349;37,55229348;21,90999985;
19:49:06:585;0,0481;0,0117;0,0429;55,90895349;37,55229348;21,90999985;
19:49:06:586;0,0481;0,0117;0,0429;55,90895349;37,55229348;21,90999985;
19:49:06:588;0,0481;0,0117;0,0429;55,90895349;37,55229348;21,90999985;
19:49:06:615;0,0481;0,0117;0,0429;55,90895349;37,55229348;21,90999985;
19:49:06:617;0,0442;0,0120;0,0383;55,90895349;37,55229348;21,90999985;
19:49:06:654;0,0442;0,0120;0,0383;55,90895349;37,55229348;21,90999985;
19:49:06:658;0,0442;0,0120;0,0383;55,90895349;37,55229348;21,90999985;
19:49:06:661;0,0442;0,0120;0,0383;55,90895349;37,55229348;21,90999985;
19:49:06:663;0,0442;0,0120;0,0383;55,90895349;37,55229348;21,90999985;
19:49:06:665;0,0442;0,0120;0,0383;55,90895349;37,55229348;21,90999985;
19:49:06:667;-0,0587;-0,0114;-0,0020;55,90895349;37,55229348;21,90999985;
19:49:06:695;-0,0587;-0,0114;-0,0020;55,90895349;37,55229348;21,90999985;
19:49:06:697;-0,0699;-0,0127;-0,0165;55,90895349;37,55229348;21,90999985;
19:49:06:735;-0,0699;-0,0127;-0,0165;55,90895349;37,55229348;21,90999985;
19:49:06:738;-0,0699;-0,0127;-0,0165;55,90895349;37,55229348;21,90999985;
19:49:06:740;-0,0699;-0,0127;-0,0165;55,90895349;37,55229348;21,90999985;
19:49:06:741;-0,0699;-0,0127;-0,0165;55,90895349;37,55229348;21,90999985;
19:49:06:743;-0,0560;-0,0377;0,0131;55,90895349;37,55229348;21,90999985;
19:49:06:774;-0,0560;-0,0377;0,0131;55,90895349;37,55229348;21,90999985;
19:49:06:776;-0,0505;-0,0230;0,0706;55,90895349;37,55229348;21,90999985;
19:49:06:815;-0,0505;-0,0230;0,0706;55,90895349;37,55229348;21,90999985;
19:49:06:818;-0,0437;-0,0184;0,0629;55,90895349;37,55229348;21,90999985;
19:49:06:819;-0,0437;-0,0184;0,0629;55,90895349;37,55229348;21,90999985;
19:49:06:821;-0,0437;-0,0184;0,0629;55,90895349;37,55229348;21,90999985;
19:49:06:822;-0,0437;-0,0184;0,0629;55,90895349;37,55229348;21,90999985;
19:49:06:823;-0,0437;-0,0184;0,0629;55,90895349;37,55229348;21,90999985;
19:49:06:825;-0,0437;-0,0184;0,0629;55,90895349;37,55229348;21,90999985;
19:49:06:856;-0,0437;-0,0184;0,0629;55,90895349;37,55229348;21,90999985;
19:49:06:858;-0,0366;-0,0146;0,0561;55,90895349;37,55229348;21,90999985;
19:49:06:896;-0,0366;-0,0146;0,0561;55,90895349;37,55229348;21,90999985;
19:49:06:899;-0,0366;-0,0146;0,0561;55,90895349;37,55229348;21,90999985;
19:49:06:901;-0,0366;-0,0146;0,0561;55,90895349;37,55229348;21,90999985;
19:49:06:902;0,0887;0,0036;-0,0415;55,90895349;37,55229348;21,90999985;
19:49:06:904;0,0887;0,0036;-0,0415;55,90895349;37,55229348;21,90999985;
19:49:06:935;0,0887;0,0036;-0,0415;55,90895349;37,55229348;21,90999985;
19:49:06:937;0,0702;0,0009;-0,0192;55,90895349;37,55229348;21,90999985;
19:49:06:977;0,0702;0,0009;-0,0192;55,90895349;37,55229348;21,90999985;
19:49:06:979;0,0616;-0,0004;-0,0172;55,90895349;37,55229348;21,90999985;
19:49:06:982;0,0616;-0,0004;-0,0172;55,90895349;37,55229348;21,90999985;
19:49:06:984;0,0616;-0,0004;-0,0172;55,90895349;37,55229348;21,90999985;
19:49:06:985;0,0616;-0,0004;-0,0172;55,90895349;37,55229348;21,90999985;
19:49:06:986;0,0616;-0,0004;-0,0172;55,90895349;37,55229348;21,90999985;
19:49:06:988;0,0616;-0,0004;-0,0172;55,90895349;37,55229348;21,90999985;
19:49:07:015;0,0616;-0,0004;-0,0172;55,90895349;37,55229348;21,90999985;
19:49:07:017;-0,0531;0,0274;0,0266;55,90895349;37,55229348;21,90999985;
19:49:07:057;-0,0531;0,0274;0,0266;55,90895349;37,55229348;21,90999985;
19:49:07:059;-0,0200;0,0704;0,0060;55,90895349;37,55229348;21,90999985;
19:49:07:062;-0,0200;0,0704;0,0060;55,90895349;37,55229348;21,90999985;
19:49:07:064;-0,0200;0,0704;0,0060;55,90895349;37,55229348;21,90999985;
19:49:07:067;-0,0200;0,0704;0,0060;55,90895349;37,55229348;21,90999985;
19:49:07:070;-0,0200;0,0704;0,0060;55,90895349;37,55229348;21,90999985;
19:49:07:097;-0,0200;0,0704;0,0060;55,90895349;37,55229348;21,90999985;
19:49:07:099;-0,0165;0,0637;0,0054;55,90895349;37,55229348;21,90999985;
19:49:07:137;-0,0165;0,0637;0,0054;55,90895349;37,55229348;21,90999985;
19:49:07:139;-0,0165;0,0637;0,0054;55,90895349;37,55229348;21,90999985;
19:49:07:142;-0,0165;0,0637;0,0054;55,90895349;37,55229348;21,90999985;
19:49:07:144;-0,0165;0,0637;0,0054;55,90895349;37,55229348;21,90999985;
19:49:07:145;0,0532;0,1032;-0,1078;55,90895349;37,55229348;21,90999985;
19:49:07:178;-0,0506;0,0157;0,0640;55,90895349;37,55229348;21,90999985;
19:49:07:182;-0,0506;0,0157;0,0640;55,90895349;37,55229348;21,90999985;
19:49:07:221;-0,0506;0,0157;0,0640;55,90895349;37,55229348;21,90999985;
19:49:07:224;-0,0423;0,0168;0,0572;55,90895349;37,55229348;21,90999985;
19:49:07:226;-0,0423;0,0168;0,0572;55,90895349;37,55229348;21,90999985;
19:49:07:228;-0,0423;0,0168;0,0572;55,90895349;37,55229348;21,90999985;
19:49:07:229;-0,0423;0,0168;0,0572;55,90895349;37,55229348;21,90999985;
19:49:07:231;-0,0423;0,0168;0,0572;55,90895349;37,55229348;21,90999985;
19:49:07:232;-0,0423;0,0168;0,0572;55,90895349;37,55229348;21,90999985;
19:49:07:258;-0,0423;0,0168;0,0572;55,90895349;37,55229348;21,90999985;
19:49:07:260;-0,0260;0,0362;0,0893;55,90895349;37,55229348;21,90999985;
19:49:07:299;-0,0260;0,0362;0,0893;55,90895349;37,55229348;21,90999985;
19:49:07:301;0,0168;0,0441;0,0063;55,90895349;37,55229348;21,90999985;
19:49:07:303;0,0168;0,0441;0,0063;55,90895349;37,55229348;21,90999985;
19:49:07:305;0,0168;0,0441;0,0063;55,90895349;37,55229348;21,90999985;
19:49:07:307;0,0168;0,0441;0,0063;55,90895349;37,55229348;21,90999985;
19:49:07:309;0,0168;0,0441;0,0063;55,90895349;37,55229348;21,90999985;
19:49:07:338;0,0168;0,0441;0,0063;55,90895349;37,55229348;21,90999985;
19:49:07:341;0,0141;0,0386;0,0055;55,90895349;37,55229348;21,90999985;
19:49:07:379;0,0141;0,0386;0,0055;55,90895349;37,55229348;21,90999985;
19:49:07:382;0,0141;0,0386;0,0055;55,90895349;37,55229348;21,90999985;
19:49:07:385;0,0141;0,0386;0,0055;55,90895349;37,55229348;21,90999985;
19:49:07:387;0,0141;0,0386;0,0055;55,90895349;37,55229348;21,90999985;
19:49:07:388;0,0147;0,0341;-0,0631;55,90895349;37,55229348;21,90999985;
19:49:07:420;0,0147;0,0341;-0,0631;55,90895349;37,55229348;21,90999985;
19:49:07:422;-0,0093;0,0306;-0,0574;55,90895349;37,55229348;21,90999985;
19:49:07:461;-0,0093;0,0306;-0,0574;55,90895349;37,55229348;21,90999985;
19:49:07:464;-0,0088;0,0298;-0,0509;55,90895349;37,55229348;21,90999985;
19:49:07:466;-0,0088;0,0298;-0,0509;55,90895349;37,55229348;21,90999985;
19:49:07:468;-0,0088;0,0298;-0,0509;55,90895349;37,55229348;21,90999985;
19:49:07:470;-0,0088;0,0298;-0,0509;55,90895349;37,55229348;21,90999985;
19:49:07:472;-0,0088;0,0298;-0,0509;55,90895349;37,55229348;21,90999985;
19:49:07:473;-0,0088;0,0298;-0,0509;55,90895349;37,55229348;21,90999985;
19:49:07:499;-0,0088;0,0298;-0,0509;55,90895349;37,55229348;21,90999985;
19:49:07:503;-0,0289;0,0175;-0,0004;55,90895349;37,55229348;21,90999985;
19:49:07:525;-0,0289;0,0175;-0,0004;55,90895349;37,55229348;21,90999985;
19:49:07:528;-0,0289;0,0175;-0,0004;55,90895349;37,55229348;21,90999985;
19:49:07:530;-0,0289;0,0175;-0,0004;55,90895349;37,55229348;21,90999985;
19:49:07:542;-0,0103;0,0085;0,0785;55,90895349;37,55229348;21,90999985;
19:49:07:547;-0,0103;0,0085;0,0785;55,90895349;37,55229348;21,90999985;
19:49:07:580;-0,0103;0,0085;0,0785;55,90895349;37,55229348;21,90999985;
19:49:07:583;0,0180;0,0175;0,0266;55,90895349;37,55229348;21,90999985;
19:49:07:613;0,0180;0,0175;0,0266;55,90895349;37,55229348;21,90999985;
19:49:07:616;0,0180;0,0175;0,0266;55,90895349;37,55229348;21,90999985;
19:49:07:621;0,0180;0,0175;0,0266;55,90895349;37,55229348;21,90999985;
19:49:07:622;0,0180;0,0175;0,0266;55,90895349;37,55229348;21,90999985;
19:49:07:624;0,0166;0,0162;0,0237;55,90895349;37,55229348;21,90999985;
19:49:07:627;0,0166;0,0162;0,0237;55,90895349;37,55229348;21,90999985;
19:49:07:658;0,0166;0,0162;0,0237;55,90895349;37,55229348;21,90999985;
19:49:07:659;0,0046;-0,0086;-0,0292;55,90895349;37,55229348;21,90999985;
19:49:07:698;0,0046;-0,0086;-0,0292;55,90895349;37,55229348;21,90999985;
19:49:07:700;0,0046;-0,0060;-0,0258;55,90895349;37,55229348;21,90999985;
19:49:07:701;0,0046;-0,0060;-0,0258;55,90895349;37,55229348;21,90999985;
19:49:07:702;0,0046;-0,0060;-0,0258;55,90895349;37,55229348;21,90999985;
19:49:07:704;0,0046;-0,0060;-0,0258;55,90895349;37,55229348;21,90999985;
19:49:07:705;0,0046;-0,0060;-0,0258;55,90895349;37,55229348;21,90999985;
19:49:07:706;0,0046;-0,0060;-0,0258;55,90895349;37,55229348;21,90999985;
19:49:07:740;0,0046;-0,0060;-0,0258;55,90895349;37,55229348;21,90999985;
19:49:07:743;0,0138;0,0007;-0,0038;55,90895349;37,55229348;21,90999985;
19:49:07:785;-0,0493;-0,0132;0,0442;55,90895349;37,55229348;21,90999985;
19:49:07:788;-0,0493;-0,0132;0,0442;55,90895349;37,55229348;21,90999985;
19:49:07:791;-0,0493;-0,0132;0,0442;55,90895349;37,55229348;21,90999985;
19:49:07:793;-0,0493;-0,0132;0,0442;55,90895349;37,55229348;21,90999985;
19:49:07:795;-0,0493;-0,0132;0,0442;55,90895349;37,55229348;21,90999985;
19:49:07:819;-0,0493;-0,0132;0,0442;55,90895349;37,55229348;21,90999985;
19:49:07:821;-0,0589;0,0140;-0,0388;55,90895349;37,55229348;21,90999985;
19:49:07:863;-0,0589;0,0140;-0,0388;55,90895349;37,55229348;21,90999985;
19:49:07:865;-0,0542;0,0133;-0,0345;55,90895349;37,55229348;21,90999985;
19:49:07:872;-0,0542;0,0133;-0,0345;55,90895349;37,55229348;21,90999985;
19:49:07:874;-0,0542;0,0133;-0,0345;55,90895349;37,55229348;21,90999985;
19:49:07:875;-0,0542;0,0133;-0,0345;55,90895349;37,55229348;21,90999985;
19:49:07:877;-0,0542;0,0133;-0,0345;55,90895349;37,55229348;21,90999985;
19:49:07:879;-0,0542;0,0133;-0,0345;55,90895349;37,55229348;21,90999985;
19:49:07:900;-0,0542;0,0133;-0,0345;55,90895349;37,55229348;21,90999985;
19:49:07:901;-0,0154;0,0176;-0,0625;55,90895349;37,55229348;21,90999985;
19:49:07:941;-0,0154;0,0176;-0,0625;55,90895349;37,55229348;21,90999985;
19:49:07:943;0,0443;-0,0111;-0,0200;55,90895349;37,55229348;21,90999985;
19:49:07:948;0,0443;-0,0111;-0,0200;55,90895349;37,55229348;21,90999985;
19:49:07:950;0,0443;-0,0111;-0,0200;55,90895349;37,55229348;21,90999985;
19:49:07:952;0,0443;-0,0111;-0,0200;55,90895349;37,55229348;21,90999985;
19:49:07:954;0,0443;-0,0111;-0,0200;55,90895349;37,55229348;21,90999985;
19:49:07:981;0,0443;-0,0111;-0,0200;55,90895349;37,55229348;21,90999985;
19:49:07:983;0,0397;-0,0085;-0,0177;55,90895349;37,55229348;21,90999985;
19:49:08:021;0,0397;-0,0085;-0,0177;55,90895349;37,55229348;21,90999985;
19:49:08:022;0,0397;-0,0085;-0,0177;55,90895349;37,55229348;21,90999985;
19:49:08:024;0,0397;-0,0085;-0,0177;55,90895349;37,55229348;21,90999985;
19:49:08:025;0,0397;-0,0085;-0,0177;55,90895349;37,55229348;21,90999985;
19:49:08:025;0,0273;-0,0095;0,1242;55,90895349;37,55229348;21,90999985;
19:49:08:063;0,0273;-0,0095;0,1242;55,90895349;37,55229348;21,90999985;
19:49:08:065;-0,0021;0,0048;0,0743;55,90895349;37,55229348;21,90999985;
19:49:08:102;-0,0021;0,0048;0,0743;55,90895349;37,55229348;21,90999985;
19:49:08:105;-0,0002;0,0057;0,0662;55,90895349;37,55229348;21,90999985;
19:49:08:108;-0,0002;0,0057;0,0662;55,90895349;37,55229348;21,90999985;
19:49:08:110;-0,0002;0,0057;0,0662;55,90895349;37,55229348;21,90999985;
19:49:08:111;-0,0002;0,0057;0,0662;55,90895349;37,55229348;21,90999985;
19:49:08:113;-0,0002;0,0057;0,0662;55,90895349;37,55229348;21,90999985;
19:49:08:115;-0,0002;0,0057;0,0662;55,90895349;37,55229348;21,90999985;
19:49:08:141;-0,0002;0,0057;0,0662;55,90895349;37,55229348;21,90999985;
19:49:08:144;0,0179;-0,0296;-0,0021;55,90895349;37,55229348;21,90999985;
19:49:08:173;0,0179;-0,0296;-0,0021;55,90895349;37,55229348;21,90999985;
19:49:08:175;0,0179;-0,0296;-0,0021;55,90895349;37,55229348;21,90999985;
19:49:08:176;0,0179;-0,0296;-0,0021;55,90895349;37,55229348;21,90999985;
19:49:08:185;0,0179;-0,0296;-0,0021;55,90895349;37,55229348;21,90999985;
19:49:08:187;-0,0123;0,0038;-0,0870;55,90895349;37,55229348;21,90999985;
19:49:08:222;-0,0123;0,0038;-0,0870;55,90895349;37,55229348;21,90999985;
19:49:08:225;-0,0339;-0,0229;-0,0098;55,90895349;37,55229348;21,90999985;
19:49:08:261;-0,0339;-0,0229;-0,0098;55,90895349;37,55229348;21,90999985;
19:49:08:264;-0,0339;-0,0229;-0,0098;55,90895349;37,55229348;21,90999985;
19:49:08:266;-0,0339;-0,0229;-0,0098;55,90895349;37,55229348;21,90999985;
19:49:08:268;-0,0339;-0,0229;-0,0098;55,90895349;37,55229348;21,90999985;
19:49:08:270;-0,0339;-0,0229;-0,0098;55,90895349;37,55229348;21,90999985;
19:49:08:271;-0,0305;-0,0193;-0,0087;55,90895349;37,55229348;21,90999985;
19:49:08:304;-0,0305;-0,0193;-0,0087;55,90895349;37,55229348;21,90999985;
19:49:08:306;-0,0569;-0,0194;0,0293;55,90895349;37,55229348;21,90999985;
19:49:08:344;-0,0569;-0,0194;0,0293;55,90895349;37,55229348;21,90999985;
19:49:08:347;-0,0569;-0,0194;0,0293;55,90895349;37,55229348;21,90999985;
19:49:08:349;-0,0569;-0,0194;0,0293;55,90895349;37,55229348;21,90999985;
19:49:08:351;-0,0569;-0,0194;0,0293;55,90895349;37,55229348;21,90999985;
19:49:08:352;-0,0569;-0,0194;0,0293;55,90895349;37,55229348;21,90999985;
19:49:08:353;-0,0569;-0,0194;0,0293;55,90895349;37,55229348;21,90999985;
19:49:08:355;-0,0248;-0,0121;-0,0001;55,90895349;37,55229348;21,90999985;
19:49:08:383;-0,0248;-0,0121;-0,0001;55,90895349;37,55229348;21,90999985;
19:49:08:385;-0,0233;-0,0087;-0,0000;55,90895349;37,55229348;21,90999985;
19:49:08:424;-0,0233;-0,0087;-0,0000;55,90895349;37,55229348;21,90999985;
19:49:08:426;-0,0233;-0,0087;-0,0000;55,90895349;37,55229348;21,90999985;
19:49:08:427;-0,0233;-0,0087;-0,0000;55,90895349;37,55229348;21,90999985;
19:49:08:429;-0,0233;-0,0087;-0,0000;55,90895349;37,55229348;21,90999985;
19:49:08:430;0,0366;0,0093;-0,0963;55,90895349;37,55229348;21,90999985;
19:49:08:464;0,0366;0,0093;-0,0963;55,90895349;37,55229348;21,90999985;
19:49:08:467;0,0700;-0,0283;-0,0159;55,90895349;37,55229348;21,90999985;
19:49:08:505;0,0700;-0,0283;-0,0159;55,90895349;37,55229348;21,90999985;
19:49:08:507;0,0638;-0,0230;-0,0139;55,90895349;37,55229348;21,90999985;
19:49:08:509;0,0638;-0,0230;-0,0139;55,90895349;37,55229348;21,90999985;
19:49:08:511;0,0638;-0,0230;-0,0139;55,90895349;37,55229348;21,90999985;
19:49:08:512;0,0638;-0,0230;-0,0139;55,90895349;37,55229348;21,90999985;
19:49:08:515;0,0638;-0,0230;-0,0139;55,90895349;37,55229348;21,90999985;
19:49:08:517;0,0638;-0,0230;-0,0139;55,90895349;37,55229348;21,90999985;
19:49:08:543;0,0638;-0,0230;-0,0139;55,90895349;37,55229348;21,90999985;
19:49:08:545;0,0558;-0,0201;-0,0124;55,90895349;37,55229348;21,90999985;
19:49:08:584;0,0558;-0,0201;-0,0124;55,90895349;37,55229348;21,90999985;
19:49:08:587;0,0479;-0,0043;0,1350;55,90895349;37,55229348;21,90999985;
19:49:08:588;0,0479;-0,0043;0,1350;55,90895349;37,55229348;21,90999985;
19:49:08:590;0,0479;-0,0043;0,1350;55,90895349;37,55229348;21,90999985;
19:49:08:591;0,0479;-0,0043;0,1350;55,90895349;37,55229348;21,90999985;
19:49:08:592;0,0479;-0,0043;0,1350;55,90895349;37,55229348;21,90999985;
19:49:08:624;0,0479;-0,0043;0,1350;55,90895349;37,55229348;21,90999985;
19:49:08:625;-0,0401;0,0204;0,0532;55,90895349;37,55229348;21,90999985;
19:49:08:665;-0,0401;0,0204;0,0532;55,90895349;37,55229348;21,90999985;
19:49:08:667;-0,0401;0,0204;0,0532;55,90895349;37,55229348;21,90999985;
19:49:08:669;-0,0401;0,0204;0,0532;55,90895349;37,55229348;21,90999985;
19:49:08:671;-0,0578;0,0150;-0,0548;55,90895349;37,55229348;21,90999985;
19:49:08:674;-0,0578;0,0150;-0,0548;55,90895349;37,55229348;21,90999985;
19:49:08:705;-0,0578;0,0150;-0,0548;55,90895349;37,55229348;21,90999985;
19:49:08:707;-0,0097;0,0659;-0,1083;55,90895349;37,55229348;21,90999985;
19:49:08:746;-0,0097;0,0659;-0,1083;55,90895349;37,55229348;21,90999985;
19:49:08:748;-0,0100;0,0594;-0,0962;55,90895349;37,55229348;21,90999985;
19:49:08:749;-0,0100;0,0594;-0,0962;55,90895349;37,55229348;21,90999985;
19:49:08:750;-0,0100;0,0594;-0,0962;55,90895349;37,55229348;21,90999985;
19:49:08:751;-0,0100;0,0594;-0,0962;55,90895349;37,55229348;21,90999985;
19:49:08:752;-0,0100;0,0594;-0,0962;55,90895349;37,55229348;21,90999985;
19:49:08:753;-0,0100;0,0594;-0,0962;55,90895349;37,55229348;21,90999985;
19:49:08:784;-0,0100;0,0594;-0,0962;55,90895349;37,55229348;21,90999985;
19:49:08:786;-0,0088;0,0541;-0,0854;55,90895349;37,55229348;21,90999985;
19:49:08:820;-0,0088;0,0541;-0,0854;55,90895349;37,55229348;21,90999985;
19:49:08:821;-0,0088;0,0541;-0,0854;55,90895349;37,55229348;21,90999985;
19:49:08:822;-0,0088;0,0541;-0,0854;55,90895349;37,55229348;21,90999985;
19:49:08:826;-0,0029;0,0396;-0,0906;55,90895349;37,55229348;21,90999985;
19:49:08:829;-0,0029;0,0396;-0,0906;55,90895349;37,55229348;21,90999985;
19:49:08:866;-0,0029;0,0396;-0,0906;55,90895349;37,55229348;21,90999985;
19:49:08:869;0,0015;0,0229;0,1112;55,90895349;37,55229348;21,90999985;
19:49:08:906;0,0015;0,0229;0,1112;55,90895349;37,55229348;21,90999985;
19:49:08:908;0,0020;0,0227;0,0990;55,90895349;37,55229348;21,90999985;
19:49:08:911;0,0020;0,0227;0,0990;55,90895349;37,55229348;21,90999985;
19:49:08:912;0,0020;0,0227;0,0990;55,90895349;37,55229348;21,90999985;
19:49:08:914;0,0020;0,0227;0,0990;55,90895349;37,55229348;21,90999985;
19:49:08:916;0,0020;0,0227;0,0990;55,90895349;37,55229348;21,90999985;
19:49:08:918;0,0020;0,0227;0,0990;55,90895349;37,55229348;21,90999985;
19:49:08:946;0,0020;0,0227;0,0990;55,90895349;37,55229348;21,90999985;
19:49:08:948;0,0045;0,0191;0,1952;55,90895349;37,55229348;21,90999985;
19:49:08:987;-0,0484;0,0060;0,0812;55,90895349;37,55229348;21,90999985;
19:49:08:990;-0,0484;0,0060;0,0812;55,90895349;37,55229348;21,90999985;
19:49:08:992;-0,0484;0,0060;0,0812;55,90895349;37,55229348;21,90999985;
19:49:08:993;-0,0484;0,0060;0,0812;55,90895349;37,55229348;21,90999985;
19:49:08:995;-0,0484;0,0060;0,0812;55,90895349;37,55229348;21,90999985;
19:49:08:997;-0,0484;0,0060;0,0812;55,90895349;37,55229348;21,90999985;
19:49:09:026;-0,0484;0,0060;0,0812;55,90895349;37,55229348;21,90999985;
19:49:09:028;-0,0477;0,0048;0,0798;55,90895349;37,55229348;21,90999985;
19:49:09:067;-0,0477;0,0048;0,0798;55,90895349;37,55229348;21,90999985;
19:49:09:069;-0,0477;0,0048;0,0798;55,90895349;37,55229348;21,90999985;
19:49:09:070;-0,0477;0,0048;0,0798;55,90895349;37,55229348;21,90999985;
19:49:09:072;-0,0477;0,0048;0,0798;55,90895349;37,55229348;21,90999985;
19:49:09:073;-0,0479;-0,0026;-0,0852;55,90895349;37,55229348;21,90999985;
19:49:09:107;-0,0479;-0,0026;-0,0852;55,90895349;37,55229348;21,90999985;
19:49:09:109;0,0125;0,0199;-0,0715;55,90895349;37,55229348;21,90999985;
19:49:09:148;0,0125;0,0199;-0,0715;55,90895349;37,55229348;21,90999985;
19:49:09:151;0,0097;0,0195;-0,0634;55,90895349;37,55229348;21,90999985;
19:49:09:154;0,0097;0,0195;-0,0634;55,90895349;37,55229348;21,90999985;
19:49:09:156;0,0097;0,0195;-0,0634;55,90895349;37,55229348;21,90999985;
19:49:09:157;0,0097;0,0195;-0,0634;55,90895349;37,55229348;21,90999985;
19:49:09:159;0,0097;0,0195;-0,0634;55,90895349;37,55229348;21,90999985;
19:49:09:160;0,0097;0,0195;-0,0634;55,90895349;37,55229348;21,90999985;
19:49:09:188;0,0097;0,0195;-0,0634;55,90895349;37,55229348;21,90999985;
19:49:09:190;0,0193;0,0167;-0,0051;55,90895349;37,55229348;21,90999985;
19:49:09:228;0,0193;0,0167;-0,0051;55,90895349;37,55229348;21,90999985;
19:49:09:231;0,0107;0,0325;0,0438;55,90895349;37,55229348;21,90999985;
19:49:09:234;0,0107;0,0325;0,0438;55,90895349;37,55229348;21,90999985;
19:49:09:236;0,0107;0,0325;0,0438;55,90895349;37,55229348;21,90999985;
19:49:09:238;0,0107;0,0325;0,0438;55,90895349;37,55229348;21,90999985;
19:49:09:240;0,0107;0,0325;0,0438;55,90895349;37,55229348;21,90999985;
19:49:09:267;0,0107;0,0325;0,0438;55,90895349;37,55229348;21,90999985;
19:49:09:270;0,0090;0,0293;0,0390;55,90895349;37,55229348;21,90999985;
19:49:09:309;0,0090;0,0293;0,0390;55,90895349;37,55229348;21,90999985;
19:49:09:311;0,0090;0,0293;0,0390;55,90895349;37,55229348;21,90999985;
19:49:09:313;0,0090;0,0293;0,0390;55,90895349;37,55229348;21,90999985;
19:49:09:315;0,0090;0,0293;0,0390;55,90895349;37,55229348;21,90999985;
19:49:09:317;-0,0001;-0,0016;0,0502;55,90895349;37,55229348;21,90999985;
19:49:09:349;-0,0001;-0,0016;0,0502;55,90895349;37,55229348;21,90999985;
19:49:09:352;-0,0232;-0,0139;0,0297;55,90895349;37,55229348;21,90999985;
19:49:09:388;-0,0232;-0,0139;0,0297;55,90895349;37,55229348;21,90999985;
19:49:09:390;-0,0207;-0,0115;0,0265;55,90895349;37,55229348;21,90999985;
19:49:09:391;-0,0207;-0,0115;0,0265;55,90895349;37,55229348;21,90999985;
19:49:09:392;-0,0207;-0,0115;0,0265;55,90895349;37,55229348;21,90999985;
19:49:09:393;-0,0207;-0,0115;0,0265;55,90895349;37,55229348;21,90999985;
19:49:09:393;-0,0207;-0,0115;0,0265;55,90895349;37,55229348;21,90999985;
19:49:09:394;-0,0207;-0,0115;0,0265;55,90895349;37,55229348;21,90999985;
19:49:09:429;-0,0207;-0,0115;0,0265;55,90895349;37,55229348;21,90999985;
19:49:09:432;-0,0358;-0,0054;-0,0012;55,90895349;37,55229348;21,90999985;
19:49:09:470;-0,0358;-0,0054;-0,0012;55,90895349;37,55229348;21,90999985;
19:49:09:473;-0,0358;-0,0054;-0,0012;55,90895349;37,55229348;21,90999985;
19:49:09:475;-0,0358;-0,0054;-0,0012;55,90895349;37,55229348;21,90999985;
19:49:09:477;-0,0358;-0,0054;-0,0012;55,90895349;37,55229348;21,90999985;
19:49:09:479;0,0039;0,0284;-0,0308;55,90895349;37,55229348;21,90999985;
19:49:09:509;0,0039;0,0284;-0,0308;55,90895349;37,55229348;21,90999985;
19:49:09:512;0,0168;0,0309;-0,0550;55,90895349;37,55229348;21,90999985;
19:49:09:549;0,0168;0,0309;-0,0550;55,90895349;37,55229348;21,90999985;
19:49:09:552;0,0123;0,0287;-0,0489;55,90895349;37,55229348;21,90999985;
19:49:09:554;0,0123;0,0287;-0,0489;55,90895349;37,55229348;21,90999985;
19:49:09:555;0,0123;0,0287;-0,0489;55,90895349;37,55229348;21,90999985;
19:49:09:556;0,0123;0,0287;-0,0489;55,90895349;37,55229348;21,90999985;
19:49:09:558;0,0123;0,0287;-0,0489;55,90895349;37,55229348;21,90999985;
19:49:09:559;0,0123;0,0287;-0,0489;55,90895349;37,55229348;21,90999985;
19:49:09:589;0,0123;0,0287;-0,0489;55,90895349;37,55229348;21,90999985;
19:49:09:591;-0,0393;0,0131;0,0261;55,90895349;37,55229348;21,90999985;
19:49:09:631;-0,0393;0,0131;0,0261;55,90895349;37,55229348;21,90999985;
19:49:09:633;-0,0113;0,0215;0,0806;55,90895349;37,55229348;21,90999985;
19:49:09:636;-0,0113;0,0215;0,0806;55,90895349;37,55229348;21,90999985;
19:49:09:637;-0,0113;0,0215;0,0806;55,90895349;37,55229348;21,90999985;
19:49:09:640;-0,0113;0,0215;0,0806;55,90895349;37,55229348;21,90999985;
19:49:09:641;-0,0113;0,0215;0,0806;55,90895349;37,55229348;21,90999985;
19:49:09:671;-0,0104;0,0180;0,0716;55,90895349;37,55229348;21,90999985;
19:49:09:674;-0,0104;0,0180;0,0716;55,90895349;37,55229348;21,90999985;
19:49:09:713;-0,0104;0,0180;0,0716;55,90895349;37,55229348;21,90999985;
19:49:09:715;-0,0104;0,0180;0,0716;55,90895349;37,55229348;21,90999985;
19:49:09:719;-0,0104;0,0180;0,0716;55,90895349;37,55229348;21,90999985;
19:49:09:721;-0,0104;0,0180;0,0716;55,90895349;37,55229348;21,90999985;
19:49:09:722;0,0525;0,0346;-0,0529;55,90895349;37,55229348;21,90999985;
19:49:09:751;0,0525;0,0346;-0,0529;55,90895349;37,55229348;21,90999985;
19:49:09:752;0,0758;0,0159;-0,0854;55,90895349;37,55229348;21,90999985;
19:49:09:791;0,0758;0,0159;-0,0854;55,90895349;37,55229348;21,90999985;
19:49:09:793;0,0684;0,0149;-0,0758;55,90895349;37,55229348;21,90999985;
19:49:09:796;0,0684;0,0149;-0,0758;55,90895349;37,55229348;21,90999985;
19:49:09:798;0,0684;0,0149;-0,0758;55,90895349;37,55229348;21,90999985;
19:49:09:800;0,0684;0,0149;-0,0758;55,90895349;37,55229348;21,90999985;
19:49:09:802;0,0684;0,0149;-0,0758;55,90895349;37,55229348;21,90999985;
19:49:09:804;0,0684;0,0149;-0,0758;55,90895349;37,55229348;21,90999985;
19:49:09:831;0,0684;0,0149;-0,0758;55,90895349;37,55229348;21,90999985;
19:49:09:834;0,0091;0,0271;0,0853;55,90895349;37,55229348;21,90999985;
19:49:09:872;0,0091;0,0271;0,0853;55,90895349;37,55229348;21,90999985;
19:49:09:875;-0,0386;0,0290;0,0739;55,90895349;37,55229348;21,90999985;
19:49:09:877;-0,0386;0,0290;0,0739;55,90895349;37,55229348;21,90999985;
19:49:09:878;-0,0386;0,0290;0,0739;55,90895349;37,55229348;21,90999985;
19:49:09:879;-0,0386;0,0290;0,0739;55,90895349;37,55229348;21,90999985;
19:49:09:881;-0,0386;0,0290;0,0739;55,90895349;37,55229348;21,90999985;
19:49:09:911;-0,0386;0,0290;0,0739;55,90895349;37,55229348;21,90999985;
19:49:09:914;-0,0336;0,0282;0,0659;55,90895349;37,55229348;21,90999985;
19:49:09:953;-0,0336;0,0282;0,0659;55,90895349;37,55229348;21,90999985;
19:49:09:955;-0,0336;0,0282;0,0659;55,90895349;37,55229348;21,90999985;
19:49:09:957;-0,0336;0,0282;0,0659;55,90895349;37,55229348;21,90999985;
19:49:09:959;-0,0336;0,0282;0,0659;55,90895349;37,55229348;21,90999985;
19:49:09:960;-0,0352;0,0168;-0,0094;55,90895349;37,55229348;21,90999985;
19:49:09:992;-0,0352;0,0168;-0,0094;55,90895349;37,55229348;21,90999985;
19:49:09:995;-0,0039;0,0270;-0,0346;55,90895349;37,55229348;21,90999985;
19:49:10:032;-0,0039;0,0270;-0,0346;55,90895349;37,55229348;21,90999985;
19:49:10:037;-0,0039;0,0270;-0,0346;55,90895349;37,55229348;21,90999985;
19:49:10:039;-0,0039;0,0270;-0,0346;55,90895349;37,55229348;21,90999985;
19:49:10:041;-0,0039;0,0270;-0,0346;55,90895349;37,55229348;21,90999985;
19:49:10:043;-0,0039;0,0270;-0,0346;55,90895349;37,55229348;21,90999985;
19:49:10:044;-0,0039;0,0270;-0,0346;55,90895349;37,55229348;21,90999985;
19:49:10:045;-0,0042;0,0244;-0,0308;55,90895349;37,55229348;21,90999985;
19:49:10:071;-0,0042;0,0244;-0,0308;55,90895349;37,55229348;21,90999985;
19:49:10:072;0,0190;0,0333;-0,0585;55,90895349;37,55229348;21,90999985;
19:49:10:112;0,0190;0,0333;-0,0585;55,90895349;37,55229348;21,90999985;
19:49:10:114;0,0148;0,0090;0,0182;55,90895349;37,55229348;21,90999985;
19:49:10:115;0,0148;0,0090;0,0182;55,90895349;37,55229348;21,90999985;
19:49:10:116;0,0148;0,0090;0,0182;55,90895349;37,55229348;21,90999985;
19:49:10:117;0,0148;0,0090;0,0182;55,90895349;37,55229348;21,90999985;
19:49:10:118;0,0148;0,0090;0,0182;55,90895349;37,55229348;21,90999985;
19:49:10:152;0,0148;0,0090;0,0182;55,90895349;37,55229348;21,90999985;
19:49:10:153;0,0139;0,0080;0,0162;55,90895349;37,55229348;21,90999985;
19:49:10:192;0,0139;0,0080;0,0162;55,90895349;37,55229348;21,90999985;
19:49:10:195;0,0139;0,0080;0,0162;55,90895349;37,55229348;21,90999985;
19:49:10:196;0,0139;0,0080;0,0162;55,90895349;37,55229348;21,90999985;
19:49:10:197;0,0139;0,0080;0,0162;55,90895349;37,55229348;21,90999985;
19:49:10:198;0,0394;0,0075;0,0747;55,90895349;37,55229348;21,90999985;
19:49:10:233;0,0394;0,0075;0,0747;55,90895349;37,55229348;21,90999985;
19:49:10:235;-0,0349;0,0207;0,0133;55,90895349;37,55229348;21,90999985;
19:49:10:274;-0,0349;0,0207;0,0133;55,90895349;37,55229348;21,90999985;
19:49:10:278;-0,0314;0,0208;0,0120;55,90895349;37,55229348;21,90999985;
19:49:10:280;-0,0314;0,0208;0,0120;55,90895349;37,55229348;21,90999985;
19:49:10:282;-0,0314;0,0208;0,0120;55,90895349;37,55229348;21,90999985;
19:49:10:284;-0,0314;0,0208;0,0120;55,90895349;37,55229348;21,90999985;
19:49:10:286;-0,0314;0,0208;0,0120;55,90895349;37,55229348;21,90999985;
19:49:10:288;-0,0314;0,0208;0,0120;55,90895349;37,55229348;21,90999985;
19:49:10:313;-0,0314;0,0208;0,0120;55,90895349;37,55229348;21,90999985;
19:49:10:316;-0,0378;0,0076;0,0016;55,90895349;37,55229348;21,90999985;
19:49:10:354;-0,0378;0,0076;0,0016;55,90895349;37,55229348;21,90999985;
19:49:10:357;-0,0378;0,0076;0,0016;55,90895349;37,55229348;21,90999985;
19:49:10:358;-0,0378;0,0076;0,0016;55,90895349;37,55229348;21,90999985;
19:49:10:360;-0,0378;0,0076;0,0016;55,90895349;37,55229348;21,90999985;
19:49:10:362;-0,0377;0,0001;-0,0304;55,90895349;37,55229348;21,90999985;
19:49:10:395;-0,0377;0,0001;-0,0304;55,90895349;37,55229348;21,90999985;
19:49:10:397;0,0303;-0,0201;-0,0163;55,90895349;37,55229348;21,90999985;
19:49:10:435;0,0303;-0,0201;-0,0163;55,90895349;37,55229348;21,90999985;
19:49:10:437;0,0273;-0,0178;-0,0145;55,90895349;37,55229348;21,90999985;
19:49:10:440;0,0273;-0,0178;-0,0145;55,90895349;37,55229348;21,90999985;
19:49:10:441;0,0273;-0,0178;-0,0145;55,90895349;37,55229348;21,90999985;
19:49:10:443;0,0273;-0,0178;-0,0145;55,90895349;37,55229348;21,90999985;
19:49:10:445;0,0273;-0,0178;-0,0145;55,90895349;37,55229348;21,90999985;
19:49:10:447;0,0273;-0,0178;-0,0145;55,90895349;37,55229348;21,90999985;
19:49:10:474;0,0273;-0,0178;-0,0145;55,90895349;37,55229348;21,90999985;
19:49:10:477;0,0238;-0,0160;-0,0129;55,90895349;37,55229348;21,90999985;
19:49:10:516;0,0238;-0,0160;-0,0129;55,90895349;37,55229348;21,90999985;
19:49:10:518;0,0376;0,0141;0,0304;55,90895349;37,55229348;21,90999985;
19:49:10:521;0,0376;0,0141;0,0304;55,90895349;37,55229348;21,90999985;
19:49:10:522;0,0376;0,0141;0,0304;55,90895349;37,55229348;21,90999985;
19:49:10:524;0,0376;0,0141;0,0304;55,90895349;37,55229348;21,90999985;
19:49:10:526;0,0376;0,0141;0,0304;55,90895349;37,55229348;21,90999985;
19:49:10:555;0,0376;0,0141;0,0304;55,90895349;37,55229348;21,90999985;
19:49:10:558;-0,0423;0,0424;-0,0332;55,90895349;37,55229348;21,90999985;
19:49:10:596;-0,0423;0,0424;-0,0332;55,90895349;37,55229348;21,90999985;
19:49:10:598;-0,0423;0,0424;-0,0332;55,90895349;37,55229348;21,90999985;
19:49:10:600;-0,0423;0,0424;-0,0332;55,90895349;37,55229348;21,90999985;
19:49:10:602;-0,0423;0,0424;-0,0332;55,90895349;37,55229348;21,90999985;
19:49:10:604;-0,0295;0,0398;-0,0196;55,90895349;37,55229348;21,90999985;
19:49:10:635;-0,0295;0,0398;-0,0196;55,90895349;37,55229348;21,90999985;
19:49:10:638;-0,0689;0,0316;-0,0004;55,90895349;37,55229348;21,90999985;
19:49:10:675;-0,0689;0,0316;-0,0004;55,90895349;37,55229348;21,90999985;
19:49:10:679;-0,0621;0,0286;-0,0003;55,90895349;37,55229348;21,90999985;
19:49:10:681;-0,0621;0,0286;-0,0003;55,90895349;37,55229348;21,90999985;
19:49:10:684;-0,0621;0,0286;-0,0003;55,90895349;37,55229348;21,90999985;
19:49:10:685;-0,0621;0,0286;-0,0003;55,90895349;37,55229348;21,90999985;
19:49:10:687;-0,0621;0,0286;-0,0003;55,90895349;37,55229348;21,90999985;
19:49:10:689;-0,0621;0,0286;-0,0003;55,90895349;37,55229348;21,90999985;
19:49:10:715;-0,0621;0,0286;-0,0003;55,90895349;37,55229348;21,90999985;
19:49:10:718;-0,0557;0,0254;-0,0003;55,90895349;37,55229348;21,90999985;
19:49:10:766;-0,0557;0,0254;-0,0003;55,90895349;37,55229348;21,90999985;
19:49:10:768;0,0308;0,0307;0,0628;56,35337319;37,51183270;1,86000001;
19:49:10:770;0,0308;0,0307;0,0628;56,35337319;37,51183270;1,86000001;
19:49:10:773;0,0308;0,0307;0,0628;56,35337319;37,51183270;1,86000001;
19:49:10:774;0,0308;0,0307;0,0628;56,35337319;37,51183270;1,86000001;
19:49:10:775;0,0308;0,0307;0,0628;56,35337319;37,51183270;1,86000001;
19:49:10:795;0,0308;0,0307;0,0628;56,35337319;37,51183270;1,86000001;
19:49:10:796;0,0444;0,0366;0,0061;56,35337319;37,51183270;1,86000001;
19:49:10:835;0,0444;0,0366;0,0061;56,35337319;37,51183270;1,86000001;
19:49:10:837;0,0444;0,0366;0,0061;56,35337319;37,51183270;1,86000001;
19:49:10:838;0,0444;0,0366;0,0061;56,35337319;37,51183270;1,86000001;
19:49:10:839;0,0444;0,0366;0,0061;56,35337319;37,51183270;1,86000001;
19:49:10:840;0,0154;0,0218;-0,0647;56,35337319;37,51183270;1,86000001;
19:49:10:875;0,0154;0,0218;-0,0647;56,35337319;37,51183270;1,86000001;
19:49:10:877;0,0334;-0,0063;-0,0793;56,35337319;37,51183270;1,86000001;
19:49:10:918;0,0334;-0,0063;-0,0793;56,35337319;37,51183270;1,86000001;
19:49:10:920;0,0316;-0,0028;-0,0702;56,35337319;37,51183270;1,86000001;
19:49:10:922;0,0316;-0,0028;-0,0702;56,35337319;37,51183270;1,86000001;
19:49:10:924;0,0316;-0,0028;-0,0702;56,35337319;37,51183270;1,86000001;
19:49:10:926;0,0316;-0,0028;-0,0702;56,35337319;37,51183270;1,86000001;
19:49:10:927;0,0316;-0,0028;-0,0702;56,35337319;37,51183270;1,86000001;
19:49:10:929;0,0316;-0,0028;-0,0702;56,35337319;37,51183270;1,86000001;
19:49:10:957;0,0316;-0,0028;-0,0702;56,35337319;37,51183270;1,86000001;
19:49:10:960;0,0283;0,0001;-0,0623;56,35337319;37,51183270;1,86000001;
19:49:10:982;0,0283;0,0001;-0,0623;56,35337319;37,51183270;1,86000001;
19:49:10:984;0,0283;0,0001;-0,0623;56,35337319;37,51183270;1,86000001;
19:49:10:987;0,0283;0,0001;-0,0623;56,35337319;37,51183270;1,86000001;
19:49:10:997;0,0283;0,0001;-0,0623;56,35337319;37,51183270;1,86000001;
19:49:10:999;-0,0082;-0,0420;0,0263;56,35337319;37,51183270;1,86000001;
19:49:11:037;-0,0082;-0,0420;0,0263;56,35337319;37,51183270;1,86000001;
19:49:11:040;-0,0291;-0,0645;0,1603;56,35337319;37,51183270;1,86000001;
19:49:11:070;-0,0291;-0,0645;0,1603;56,35337319;37,51183270;1,86000001;
19:49:11:072;-0,0291;-0,0645;0,1603;56,35337319;37,51183270;1,86000001;
19:49:11:074;-0,0291;-0,0645;0,1603;56,35337319;37,51183270;1,86000001;
19:49:11:076;-0,0291;-0,0645;0,1603;56,35337319;37,51183270;1,86000001;
19:49:11:078;-0,0291;-0,0645;0,1603;56,35337319;37,51183270;1,86000001;
19:49:11:080;-0,0509;-0,0754;0,0545;56,35337319;37,51183270;1,86000001;
19:49:11:118;-0,0509;-0,0754;0,0545;56,35337319;37,51183270;1,86000001;
19:49:11:121;0,0811;-0,0720;-0,0323;56,35337319;37,51183270;1,86000001;
19:49:11:158;0,0811;-0,0720;-0,0323;56,35337319;37,51183270;1,86000001;
19:49:11:160;0,0726;-0,0625;-0,0286;56,35337319;37,51183270;1,86000001;
19:49:11:163;0,0726;-0,0625;-0,0286;56,35337319;37,51183270;1,86000001;
19:49:11:166;0,0726;-0,0625;-0,0286;56,35337319;37,51183270;1,86000001;
19:49:11:167;0,0726;-0,0625;-0,0286;56,35337319;37,51183270;1,86000001;
19:49:11:169;0,0726;-0,0625;-0,0286;56,35337319;37,51183270;1,86000001;
19:49:11:170;0,0726;-0,0625;-0,0286;56,35337319;37,51183270;1,86000001;
19:49:11:198;0,0726;-0,0625;-0,0286;56,35337319;37,51183270;1,86000001;
19:49:11:201;0,0642;-0,0540;-0,0253;56,35337319;37,51183270;1,86000001;
19:49:11:240;0,0642;-0,0540;-0,0253;56,35337319;37,51183270;1,86000001;
19:49:11:242;0,0642;-0,0540;-0,0253;56,35337319;37,51183270;1,86000001;
19:49:11:244;0,0642;-0,0540;-0,0253;56,35337319;37,51183270;1,86000001;
19:49:11:246;0,0642;-0,0540;-0,0253;56,35337319;37,51183270;1,86000001;
19:49:11:247;0,0346;-0,0823;-0,0543;56,35337319;37,51183270;1,86000001;
19:49:11:279;0,0346;-0,0823;-0,0543;56,35337319;37,51183270;1,86000001;
19:49:11:281;0,0139;-0,0440;0,0859;56,35337319;37,51183270;1,86000001;
19:49:11:320;0,0139;-0,0440;0,0859;56,35337319;37,51183270;1,86000001;
19:49:11:322;0,0132;-0,0386;0,0765;56,35337319;37,51183270;1,86000001;
19:49:11:325;0,0132;-0,0386;0,0765;56,35337319;37,51183270;1,86000001;
19:49:11:327;0,0132;-0,0386;0,0765;56,35337319;37,51183270;1,86000001;
19:49:11:328;0,0132;-0,0386;0,0765;56,35337319;37,51183270;1,86000001;
19:49:11:330;0,0132;-0,0386;0,0765;56,35337319;37,51183270;1,86000001;
19:49:11:332;0,0132;-0,0386;0,0765;56,35337319;37,51183270;1,86000001;
19:49:11:359;0,0132;-0,0386;0,0765;56,35337319;37,51183270;1,86000001;
19:49:11:363;-0,0885;-0,0675;0,0325;56,35337319;37,51183270;1,86000001;
19:49:11:399;-0,0885;-0,0675;0,0325;56,35337319;37,51183270;1,86000001;
19:49:11:402;-0,0404;-0,0574;0,0020;56,35337319;37,51183270;1,86000001;
19:49:11:404;-0,0404;-0,0574;0,0020;56,35337319;37,51183270;1,86000001;
19:49:11:406;-0,0404;-0,0574;0,0020;56,35337319;37,51183270;1,86000001;
19:49:11:407;-0,0404;-0,0574;0,0020;56,35337319;37,51183270;1,86000001;
19:49:11:409;-0,0404;-0,0574;0,0020;56,35337319;37,51183270;1,86000001;
19:49:11:439;-0,0404;-0,0574;0,0020;56,35337319;37,51183270;1,86000001;
19:49:11:442;-0,0368;-0,0501;0,0018;56,35337319;37,51183270;1,86000001;
19:49:11:480;-0,0368;-0,0501;0,0018;56,35337319;37,51183270;1,86000001;
19:49:11:483;-0,0368;-0,0501;0,0018;56,35337319;37,51183270;1,86000001;
19:49:11:485;-0,0368;-0,0501;0,0018;56,35337319;37,51183270;1,86000001;
19:49:11:486;-0,0368;-0,0501;0,0018;56,35337319;37,51183270;1,86000001;
19:49:11:488;-0,0308;-0,0258;-0,0459;56,35337319;37,51183270;1,86000001;
19:49:11:522;-0,0308;-0,0258;-0,0459;56,35337319;37,51183270;1,86000001;
19:49:11:524;0,0133;-0,0004;-0,0096;56,35337319;37,51183270;1,86000001;
19:49:11:560;0,0133;-0,0004;-0,0096;56,35337319;37,51183270;1,86000001;
19:49:11:564;0,0124;0,0004;-0,0084;56,35337319;37,51183270;1,86000001;
19:49:11:567;0,0124;0,0004;-0,0084;56,35337319;37,51183270;1,86000001;
19:49:11:569;0,0124;0,0004;-0,0084;56,35337319;37,51183270;1,86000001;
19:49:11:570;0,0124;0,0004;-0,0084;56,35337319;37,51183270;1,86000001;
19:49:11:572;0,0124;0,0004;-0,0084;56,35337319;37,51183270;1,86000001;
19:49:11:573;0,0124;0,0004;-0,0084;56,35337319;37,51183270;1,86000001;
19:49:11:601;0,0124;0,0004;-0,0084;56,35337319;37,51183270;1,86000001;
19:49:11:604;0,0026;-0,0380;0,0067;56,35337319;37,51183270;1,86000001;
19:49:11:632;0,0026;-0,0380;0,0067;56,35337319;37,51183270;1,86000001;
19:49:11:636;0,0026;-0,0380;0,0067;56,35337319;37,51183270;1,86000001;
19:49:11:640;0,0026;-0,0380;0,0067;56,35337319;37,51183270;1,86000001;
19:49:11:642;0,0026;-0,0380;0,0067;56,35337319;37,51183270;1,86000001;
19:49:11:644;0,0557;-0,0288;0,0550;56,35337319;37,51183270;1,86000001;
19:49:11:681;0,0557;-0,0288;0,0550;56,35337319;37,51183270;1,86000001;
19:49:11:684;-0,0096;-0,0169;0,0028;56,35337319;37,51183270;1,86000001;
19:49:11:720;-0,0096;-0,0169;0,0028;56,35337319;37,51183270;1,86000001;
19:49:11:724;-0,0096;-0,0169;0,0028;56,35337319;37,51183270;1,86000001;
19:49:11:725;-0,0096;-0,0169;0,0028;56,35337319;37,51183270;1,86000001;
19:49:11:728;-0,0096;-0,0169;0,0028;56,35337319;37,51183270;1,86000001;
19:49:11:729;-0,0076;-0,0142;0,0026;56,35337319;37,51183270;1,86000001;
19:49:11:731;-0,0076;-0,0142;0,0026;56,35337319;37,51183270;1,86000001;
19:49:11:760;-0,0076;-0,0142;0,0026;56,35337319;37,51183270;1,86000001;
19:49:11:762;0,0048;-0,0126;-0,0267;56,35328544;37,51194159;1,73000002;
19:49:11:800;0,0048;-0,0126;-0,0267;56,35328544;37,51194159;1,73000002;
19:49:11:801;0,0041;-0,0105;-0,0237;56,35328544;37,51194159;1,73000002;
19:49:11:803;0,0041;-0,0105;-0,0237;56,35328544;37,51194159;1,73000002;
19:49:11:805;0,0041;-0,0105;-0,0237;56,35328544;37,51194159;1,73000002;
19:49:11:806;0,0041;-0,0105;-0,0237;56,35328544;37,51194159;1,73000002;
19:49:11:807;0,0041;-0,0105;-0,0237;56,35328544;37,51194159;1,73000002;
19:49:11:808;0,0041;-0,0105;-0,0237;56,35328544;37,51194159;1,73000002;
19:49:11:840;0,0041;-0,0105;-0,0237;56,35328544;37,51194159;1,73000002;
19:49:11:844;-0,0361;-0,0097;-0,0423;56,35328544;37,51194159;1,73000002;
19:49:11:882;-0,0361;-0,0097;-0,0423;56,35328544;37,51194159;1,73000002;
19:49:11:885;-0,0361;-0,0097;-0,0423;56,35328544;37,51194159;1,73000002;
19:49:11:887;-0,0361;-0,0097;-0,0423;56,35328544;37,51194159;1,73000002;
19:49:11:888;-0,0361;-0,0097;-0,0423;56,35328544;37,51194159;1,73000002;
19:49:11:890;-0,0206;0,0091;0,0879;56,35328544;37,51194159;1,73000002;
19:49:11:922;-0,0206;0,0091;0,0879;56,35328544;37,51194159;1,73000002;
19:49:11:924;0,0080;0,0203;-0,0027;56,35328544;37,51194159;1,73000002;
19:49:11:964;0,0080;0,0203;-0,0027;56,35328544;37,51194159;1,73000002;
19:49:11:967;0,0078;0,0179;-0,0024;56,35328544;37,51194159;1,73000002;
19:49:11:969;0,0078;0,0179;-0,0024;56,35328544;37,51194159;1,73000002;
19:49:11:971;0,0078;0,0179;-0,0024;56,35328544;37,51194159;1,73000002;
19:49:11:973;0,0078;0,0179;-0,0024;56,35328544;37,51194159;1,73000002;
19:49:11:975;0,0078;0,0179;-0,0024;56,35328544;37,51194159;1,73000002;
19:49:11:977;0,0078;0,0179;-0,0024;56,35328544;37,51194159;1,73000002;
19:49:12:002;0,0078;0,0179;-0,0024;56,35328544;37,51194159;1,73000002;
19:49:12:004;0,0098;0,0257;-0,0255;56,35328544;37,51194159;1,73000002;
19:49:12:044;0,0098;0,0257;-0,0255;56,35328544;37,51194159;1,73000002;
19:49:12:046;0,0038;0,0166;-0,0572;56,35328544;37,51194159;1,73000002;
19:49:12:048;0,0038;0,0166;-0,0572;56,35328544;37,51194159;1,73000002;
19:49:12:050;0,0038;0,0166;-0,0572;56,35328544;37,51194159;1,73000002;
19:49:12:051;0,0038;0,0166;-0,0572;56,35328544;37,51194159;1,73000002;
19:49:12:053;0,0038;0,0166;-0,0572;56,35328544;37,51194159;1,73000002;
19:49:12:083;0,0038;0,0166;-0,0572;56,35328544;37,51194159;1,73000002;
19:49:12:086;0,0049;0,0181;-0,0505;56,35328544;37,51194159;1,73000002;
19:49:12:124;0,0049;0,0181;-0,0505;56,35328544;37,51194159;1,73000002;
19:49:12:127;0,0049;0,0181;-0,0505;56,35328544;37,51194159;1,73000002;
19:49:12:129;0,0049;0,0181;-0,0505;56,35328544;37,51194159;1,73000002;
19:49:12:130;0,0049;0,0181;-0,0505;56,35328544;37,51194159;1,73000002;
19:49:12:132;-0,0113;0,0482;0,0078;56,35328544;37,51194159;1,73000002;
19:49:12:162;-0,0113;0,0482;0,0078;56,35328544;37,51194159;1,73000002;
19:49:12:165;-0,0031;0,0119;0,0907;56,35328544;37,51194159;1,73000002;
19:49:12:203;-0,0031;0,0119;0,0907;56,35328544;37,51194159;1,73000002;
19:49:12:206;-0,0037;0,0105;0,0806;56,35328544;37,51194159;1,73000002;
19:49:12:208;-0,0037;0,0105;0,0806;56,35328544;37,51194159;1,73000002;
19:49:12:209;-0,0037;0,0105;0,0806;56,35328544;37,51194159;1,73000002;
19:49:12:210;-0,0037;0,0105;0,0806;56,35328544;37,51194159;1,73000002;
19:49:12:211;-0,0037;0,0105;0,0806;56,35328544;37,51194159;1,73000002;
19:49:12:212;-0,0037;0,0105;0,0806;56,35328544;37,51194159;1,73000002;
19:49:12:243;-0,0037;0,0105;0,0806;56,35328544;37,51194159;1,73000002;
19:49:12:246;-0,0178;0,0263;0,0128;56,35328544;37,51194159;1,73000002;
19:49:12:279;-0,0178;0,0263;0,0128;56,35328544;37,51194159;1,73000002;
19:49:12:282;-0,0178;0,0263;0,0128;56,35328544;37,51194159;1,73000002;
19:49:12:284;-0,0178;0,0263;0,0128;56,35328544;37,51194159;1,73000002;
19:49:12:286;-0,0178;0,0263;0,0128;56,35328544;37,51194159;1,73000002;
19:49:12:287;-0,0331;0,0342;-0,0276;56,35328544;37,51194159;1,73000002;
19:49:12:324;-0,0331;0,0342;-0,0276;56,35328544;37,51194159;1,73000002;
19:49:12:327;0,0319;0,0316;-0,0542;56,35328544;37,51194159;1,73000002;
19:49:12:368;0,0319;0,0316;-0,0542;56,35328544;37,51194159;1,73000002;
19:49:12:371;0,0319;0,0316;-0,0542;56,35328544;37,51194159;1,73000002;
19:49:12:373;0,0319;0,0316;-0,0542;56,35328544;37,51194159;1,73000002;
19:49:12:375;0,0319;0,0316;-0,0542;56,35328544;37,51194159;1,73000002;
19:49:12:376;0,0319;0,0316;-0,0542;56,35328544;37,51194159;1,73000002;
19:49:12:378;0,0319;0,0316;-0,0542;56,35328544;37,51194159;1,73000002;
19:49:12:380;0,0277;0,0301;-0,0481;56,35328544;37,51194159;1,73000002;
19:49:12:403;0,0277;0,0301;-0,0481;56,35328544;37,51194159;1,73000002;
19:49:12:405;0,0239;0,0290;-0,0426;56,35328544;37,51194159;1,73000002;
19:49:12:444;0,0239;0,0290;-0,0426;56,35328544;37,51194159;1,73000002;
19:49:12:446;-0,0353;0,0345;0,0226;56,35328544;37,51194159;1,73000002;
19:49:12:449;-0,0353;0,0345;0,0226;56,35328544;37,51194159;1,73000002;
19:49:12:450;-0,0353;0,0345;0,0226;56,35328544;37,51194159;1,73000002;
19:49:12:451;-0,0353;0,0345;0,0226;56,35328544;37,51194159;1,73000002;
19:49:12:452;-0,0353;0,0345;0,0226;56,35328544;37,51194159;1,73000002;
19:49:12:485;-0,0353;0,0345;0,0226;56,35328544;37,51194159;1,73000002;
19:49:12:488;0,0036;0,0145;0,0804;56,35328544;37,51194159;1,73000002;
19:49:12:526;0,0036;0,0145;0,0804;56,35328544;37,51194159;1,73000002;
19:49:12:528;0,0036;0,0145;0,0804;56,35328544;37,51194159;1,73000002;
19:49:12:530;0,0036;0,0145;0,0804;56,35328544;37,51194159;1,73000002;
19:49:12:532;0,0036;0,0145;0,0804;56,35328544;37,51194159;1,73000002;
19:49:12:533;0,0508;0,1070;-0,0251;56,35328544;37,51194159;1,73000002;
19:49:12:565;0,0508;0,1070;-0,0251;56,35328544;37,51194159;1,73000002;
19:49:12:568;-0,0403;0,1469;0,0003;56,35328544;37,51194159;1,73000002;
19:49:12:606;-0,0403;0,1469;0,0003;56,35328544;37,51194159;1,73000002;
19:49:12:609;-0,0353;0,1296;0,0002;56,35328544;37,51194159;1,73000002;
19:49:12:611;-0,0353;0,1296;0,0002;56,35328544;37,51194159;1,73000002;
19:49:12:613;-0,0353;0,1296;0,0002;56,35328544;37,51194159;1,73000002;
19:49:12:615;-0,0353;0,1296;0,0002;56,35328544;37,51194159;1,73000002;
19:49:12:617;-0,0353;0,1296;0,0002;56,35328544;37,51194159;1,73000002;
19:49:12:619;-0,0353;0,1296;0,0002;56,35328544;37,51194159;1,73000002;
19:49:12:645;-0,0353;0,1296;0,0002;56,35328544;37,51194159;1,73000002;
19:49:12:646;-0,0308;0,1153;0,0002;56,35328544;37,51194159;1,73000002;
19:49:12:686;-0,0308;0,1153;0,0002;56,35328544;37,51194159;1,73000002;
19:49:12:688;-0,0422;0,0999;0,0116;56,35328544;37,51194159;1,73000002;
19:49:12:689;-0,0422;0,0999;0,0116;56,35328544;37,51194159;1,73000002;
19:49:12:691;-0,0422;0,0999;0,0116;56,35328544;37,51194159;1,73000002;
19:49:12:692;-0,0422;0,0999;0,0116;56,35328544;37,51194159;1,73000002;
19:49:12:693;-0,0422;0,0999;0,0116;56,35328544;37,51194159;1,73000002;
19:49:12:725;-0,0422;0,0999;0,0116;56,35328544;37,51194159;1,73000002;
19:49:12:728;-0,0782;0,1202;0,0153;56,35328544;37,51194159;1,73000002;
19:49:12:766;-0,0782;0,1202;0,0153;56,35328544;37,51194159;1,73000002;
19:49:12:767;-0,0782;0,1202;0,0153;56,35328919;37,51189284;1,45000005;
19:49:12:769;-0,0782;0,1202;0,0153;56,35328919;37,51189284;1,45000005;
19:49:12:770;-0,0782;0,1202;0,0153;56,35328919;37,51189284;1,45000005;
19:49:12:771;-0,0126;0,1217;-0,0155;56,35328919;37,51189284;1,45000005;
19:49:12:805;-0,0126;0,1217;-0,0155;56,35328919;37,51189284;1,45000005;
19:49:12:807;0,0425;0,1070;-0,1265;56,35328919;37,51189284;1,45000005;
19:49:12:847;0,0425;0,1070;-0,1265;56,35328919;37,51189284;1,45000005;
19:49:12:850;0,0389;0,0961;-0,1124;56,35328919;37,51189284;1,45000005;
19:49:12:852;0,0389;0,0961;-0,1124;56,35328919;37,51189284;1,45000005;
19:49:12:854;0,0389;0,0961;-0,1124;56,35328919;37,51189284;1,45000005;
19:49:12:856;0,0389;0,0961;-0,1124;56,35328919;37,51189284;1,45000005;
19:49:12:858;0,0389;0,0961;-0,1124;56,35328919;37,51189284;1,45000005;
19:49:12:859;0,0389;0,0961;-0,1124;56,35328919;37,51189284;1,45000005;
19:49:12:887;0,0389;0,0961;-0,1124;56,35328919;37,51189284;1,45000005;
19:49:12:890;0,0363;0,0865;-0,0998;56,35328919;37,51189284;1,45000005;
19:49:12:928;0,0574;0,0797;0,0504;56,35328919;37,51189284;1,45000005;
19:49:12:932;0,0574;0,0797;0,0504;56,35328919;37,51189284;1,45000005;
19:49:12:934;0,0574;0,0797;0,0504;56,35328919;37,51189284;1,45000005;
19:49:12:935;0,0574;0,0797;0,0504;56,35328919;37,51189284;1,45000005;
19:49:12:937;0,0574;0,0797;0,0504;56,35328919;37,51189284;1,45000005;
19:49:12:966;0,0574;0,0797;0,0504;56,35328919;37,51189284;1,45000005;
19:49:12:968;0,0427;0,0497;0,1789;56,35328919;37,51189284;1,45000005;
19:49:13:010;0,0427;0,0497;0,1789;56,35328919;37,51189284;1,45000005;
19:49:13:012;0,0387;0,0440;0,1590;56,35328919;37,51189284;1,45000005;
19:49:13:015;0,0387;0,0440;0,1590;56,35328919;37,51189284;1,45000005;
19:49:13:017;0,0387;0,0440;0,1590;56,35328919;37,51189284;1,45000005;
19:49:13:019;0,0387;0,0440;0,1590;56,35328919;37,51189284;1,45000005;
19:49:13:021;0,0387;0,0440;0,1590;56,35328919;37,51189284;1,45000005;
19:49:13:022;0,0387;0,0440;0,1590;56,35328919;37,51189284;1,45000005;
19:49:13:047;0,0387;0,0440;0,1590;56,35328919;37,51189284;1,45000005;
19:49:13:051;-0,0889;0,0302;0,0357;56,35328919;37,51189284;1,45000005;
19:49:13:088;-0,0889;0,0302;0,0357;56,35328919;37,51189284;1,45000005;
19:49:13:091;-0,0710;0,0437;-0,0839;56,35328919;37,51189284;1,45000005;
19:49:13:093;-0,0710;0,0437;-0,0839;56,35328919;37,51189284;1,45000005;
19:49:13:095;-0,0710;0,0437;-0,0839;56,35328919;37,51189284;1,45000005;
19:49:13:097;-0,0710;0,0437;-0,0839;56,35328919;37,51189284;1,45000005;
19:49:13:099;-0,0710;0,0437;-0,0839;56,35328919;37,51189284;1,45000005;
19:49:13:128;-0,0710;0,0437;-0,0839;56,35328919;37,51189284;1,45000005;
19:49:13:129;-0,0638;0,0397;-0,0745;56,35328919;37,51189284;1,45000005;
19:49:13:169;0,0071;0,0571;-0,1350;56,35328919;37,51189284;1,45000005;
19:49:13:173;0,0071;0,0571;-0,1350;56,35328919;37,51189284;1,45000005;
19:49:13:176;0,0071;0,0571;-0,1350;56,35328919;37,51189284;1,45000005;
19:49:13:177;0,0071;0,0571;-0,1350;56,35328919;37,51189284;1,45000005;
19:49:13:179;0,0071;0,0571;-0,1350;56,35328919;37,51189284;1,45000005;
19:49:13:208;0,0071;0,0571;-0,1350;56,35328919;37,51189284;1,45000005;
19:49:13:211;0,0014;0,0480;0,0701;56,35328919;37,51189284;1,45000005;
19:49:13:249;0,0014;0,0480;0,0701;56,35328919;37,51189284;1,45000005;
19:49:13:252;0,0000;0,0422;0,0622;56,35328919;37,51189284;1,45000005;
19:49:13:255;0,0000;0,0422;0,0622;56,35328919;37,51189284;1,45000005;
19:49:13:257;0,0000;0,0422;0,0622;56,35328919;37,51189284;1,45000005;
19:49:13:258;0,0000;0,0422;0,0622;56,35328919;37,51189284;1,45000005;
19:49:13:260;0,0000;0,0422;0,0622;56,35328919;37,51189284;1,45000005;
19:49:13:262;0,0000;0,0422;0,0622;56,35328919;37,51189284;1,45000005;
19:49:13:288;0,0000;0,0422;0,0622;56,35328919;37,51189284;1,45000005;
19:49:13:292;0,0462;0,0057;0,1276;56,35328919;37,51189284;1,45000005;
19:49:13:329;0,0462;0,0057;0,1276;56,35328919;37,51189284;1,45000005;
19:49:13:332;-0,0041;0,0393;0,0071;56,35328919;37,51189284;1,45000005;
19:49:13:335;-0,0041;0,0393;0,0071;56,35328919;37,51189284;1,45000005;
19:49:13:337;-0,0041;0,0393;0,0071;56,35328919;37,51189284;1,45000005;
19:49:13:338;-0,0041;0,0393;0,0071;56,35328919;37,51189284;1,45000005;
19:49:13:340;-0,0041;0,0393;0,0071;56,35328919;37,51189284;1,45000005;
19:49:13:369;-0,0041;0,0393;0,0071;56,35328919;37,51189284;1,45000005;
19:49:13:374;-0,0019;0,0349;0,0063;56,35328919;37,51189284;1,45000005;
19:49:13:410;-0,0019;0,0349;0,0063;56,35328919;37,51189284;1,45000005;
19:49:13:413;-0,0019;0,0349;0,0063;56,35328919;37,51189284;1,45000005;
19:49:13:415;-0,0019;0,0349;0,0063;56,35328919;37,51189284;1,45000005;
19:49:13:417;-0,0019;0,0349;0,0063;56,35328919;37,51189284;1,45000005;
19:49:13:418;0,0294;0,0264;-0,0489;56,35328919;37,51189284;1,45000005;
19:49:13:450;0,0294;0,0264;-0,0489;56,35328919;37,51189284;1,45000005;
19:49:13:454;-0,0074;0,0274;-0,0966;56,35328919;37,51189284;1,45000005;
19:49:13:490;-0,0074;0,0274;-0,0966;56,35328919;37,51189284;1,45000005;
19:49:13:493;-0,0062;0,0266;-0,0857;56,35328919;37,51189284;1,45000005;
19:49:13:496;-0,0062;0,0266;-0,0857;56,35328919;37,51189284;1,45000005;
19:49:13:498;-0,0062;0,0266;-0,0857;56,35328919;37,51189284;1,45000005;
19:49:13:500;-0,0062;0,0266;-0,0857;56,35328919;37,51189284;1,45000005;
19:49:13:501;-0,0062;0,0266;-0,0857;56,35328919;37,51189284;1,45000005;
19:49:13:503;-0,0062;0,0266;-0,0857;56,35328919;37,51189284;1,45000005;
19:49:13:529;-0,0062;0,0266;-0,0857;56,35328919;37,51189284;1,45000005;
19:49:13:531;-0,0625;0,0297;0,0097;56,35328919;37,51189284;1,45000005;
19:49:13:571;-0,0625;0,0297;0,0097;56,35328919;37,51189284;1,45000005;
19:49:13:574;-0,0000;0,0003;0,0314;56,35328919;37,51189284;1,45000005;
19:49:13:577;-0,0000;0,0003;0,0314;56,35328919;37,51189284;1,45000005;
19:49:13:578;-0,0000;0,0003;0,0314;56,35328919;37,51189284;1,45000005;
19:49:13:580;-0,0000;0,0003;0,0314;56,35328919;37,51189284;1,45000005;
19:49:13:581;-0,0000;0,0003;0,0314;56,35328919;37,51189284;1,45000005;
19:49:13:611;-0,0000;0,0003;0,0314;56,35328919;37,51189284;1,45000005;
19:49:13:614;0,0004;0,0006;0,0280;56,35328919;37,51189284;1,45000005;
19:49:13:652;0,0004;0,0006;0,0280;56,35328919;37,51189284;1,45000005;
19:49:13:655;0,0004;0,0006;0,0280;56,35328919;37,51189284;1,45000005;
19:49:13:656;0,0004;0,0006;0,0280;56,35328919;37,51189284;1,45000005;
19:49:13:658;0,0004;0,0006;0,0280;56,35328919;37,51189284;1,45000005;
19:49:13:660;0,0058;0,0175;0,0461;56,35328919;37,51189284;1,45000005;
19:49:13:691;0,0058;0,0175;0,0461;56,35328919;37,51189284;1,45000005;
19:49:13:694;0,0268;-0,0265;0,0815;56,35328919;37,51189284;1,45000005;
19:49:13:745;0,0268;-0,0265;0,0815;56,35328919;37,51189284;1,45000005;
19:49:13:747;0,0242;-0,0230;0,0724;56,35329126;37,51191337;1,35000002;
19:49:13:748;0,0242;-0,0230;0,0724;56,35329126;37,51191337;1,35000002;
19:49:13:750;0,0242;-0,0230;0,0724;56,35329126;37,51191337;1,35000002;
19:49:13:750;0,0242;-0,0230;0,0724;56,35329126;37,51191337;1,35000002;
19:49:13:751;0,0242;-0,0230;0,0724;56,35329126;37,51191337;1,35000002;
19:49:13:753;0,0242;-0,0230;0,0724;56,35329126;37,51191337;1,35000002;
19:49:13:770;0,0242;-0,0230;0,0724;56,35329126;37,51191337;1,35000002;
19:49:13:772;0,0216;0,0084;-0,0590;56,35329126;37,51191337;1,35000002;
19:49:13:811;0,0216;0,0084;-0,0590;56,35329126;37,51191337;1,35000002;
19:49:13:813;0,0216;0,0084;-0,0590;56,35329126;37,51191337;1,35000002;
19:49:13:815;0,0216;0,0084;-0,0590;56,35329126;37,51191337;1,35000002;
19:49:13:816;0,0216;0,0084;-0,0590;56,35329126;37,51191337;1,35000002;
19:49:13:817;-0,0271;0,0336;-0,0318;56,35329126;37,51191337;1,35000002;
19:49:13:851;-0,0271;0,0336;-0,0318;56,35329126;37,51191337;1,35000002;
19:49:13:853;-0,0098;-0,0290;-0,0332;56,35329126;37,51191337;1,35000002;
19:49:13:894;-0,0098;-0,0290;-0,0332;56,35329126;37,51191337;1,35000002;
19:49:13:897;-0,0083;-0,0253;-0,0295;56,35329126;37,51191337;1,35000002;
19:49:13:903;-0,0083;-0,0253;-0,0295;56,35329126;37,51191337;1,35000002;
19:49:13:905;-0,0083;-0,0253;-0,0295;56,35329126;37,51191337;1,35000002;
19:49:13:907;-0,0083;-0,0253;-0,0295;56,35329126;37,51191337;1,35000002;
19:49:13:909;-0,0083;-0,0253;-0,0295;56,35329126;37,51191337;1,35000002;
19:49:13:912;-0,0083;-0,0253;-0,0295;56,35329126;37,51191337;1,35000002;
19:49:13:934;-0,0083;-0,0253;-0,0295;56,35329126;37,51191337;1,35000002;
19:49:13:935;-0,0123;0,0188;0,0107;56,35329126;37,51191337;1,35000002;
19:49:13:972;-0,0123;0,0188;0,0107;56,35329126;37,51191337;1,35000002;
19:49:13:974;0,0170;0,0050;0,0401;56,35329126;37,51191337;1,35000002;
19:49:13:976;0,0170;0,0050;0,0401;56,35329126;37,51191337;1,35000002;
19:49:13:977;0,0170;0,0050;0,0401;56,35329126;37,51191337;1,35000002;
19:49:13:978;0,0170;0,0050;0,0401;56,35329126;37,51191337;1,35000002;
19:49:13:978;0,0170;0,0050;0,0401;56,35329126;37,51191337;1,35000002;
19:49:14:012;0,0170;0,0050;0,0401;56,35329126;37,51191337;1,35000002;
19:49:14:014;0,0149;0,0053;0,0357;56,35329126;37,51191337;1,35000002;
19:49:14:054;0,0149;0,0053;0,0357;56,35329126;37,51191337;1,35000002;
19:49:14:056;0,0149;0,0053;0,0357;56,35329126;37,51191337;1,35000002;
19:49:14:058;0,0149;0,0053;0,0357;56,35329126;37,51191337;1,35000002;
19:49:14:060;0,0149;0,0053;0,0357;56,35329126;37,51191337;1,35000002;
19:49:14:061;-0,0111;0,0032;-0,0086;56,35329126;37,51191337;1,35000002;
19:49:14:093;-0,0111;0,0032;-0,0086;56,35329126;37,51191337;1,35000002;
19:49:14:096;-0,0338;0,0098;0,0264;56,35329126;37,51191337;1,35000002;
19:49:14:133;-0,0338;0,0098;0,0264;56,35329126;37,51191337;1,35000002;
19:49:14:137;-0,0306;0,0092;0,0235;56,35329126;37,51191337;1,35000002;
19:49:14:140;-0,0306;0,0092;0,0235;56,35329126;37,51191337;1,35000002;
19:49:14:142;-0,0306;0,0092;0,0235;56,35329126;37,51191337;1,35000002;
19:49:14:144;-0,0306;0,0092;0,0235;56,35329126;37,51191337;1,35000002;
19:49:14:145;-0,0306;0,0092;0,0235;56,35329126;37,51191337;1,35000002;
19:49:14:147;-0,0306;0,0092;0,0235;56,35329126;37,51191337;1,35000002;
19:49:14:172;-0,0306;0,0092;0,0235;56,35329126;37,51191337;1,35000002;
19:49:14:174;0,0159;-0,0183;-0,0025;56,35329126;37,51191337;1,35000002;
19:49:14:210;0,0159;-0,0183;-0,0025;56,35329126;37,51191337;1,35000002;
19:49:14:212;0,0159;-0,0183;-0,0025;56,35329126;37,51191337;1,35000002;
19:49:14:214;0,0159;-0,0183;-0,0025;56,35329126;37,51191337;1,35000002;
19:49:14:223;0,0159;-0,0183;-0,0025;56,35329126;37,51191337;1,35000002;
19:49:14:309;0,0159;-0,0183;-0,0025;56,35329126;37,51191337;1,35000002;
19:49:14:311;0,0057;-0,0144;-0,0030;56,35329126;37,51191337;1,35000002;
19:49:14:312;0,0057;-0,0144;-0,0030;56,35329126;37,51191337;1,35000002;
19:49:14:313;0,0057;-0,0144;-0,0030;56,35329126;37,51191337;1,35000002;
19:49:14:315;0,0057;-0,0144;-0,0030;56,35329126;37,51191337;1,35000002;
19:49:14:317;0,0057;-0,0144;-0,0030;56,35329126;37,51191337;1,35000002;
19:49:14:354;0,0057;-0,0144;-0,0030;56,35329126;37,51191337;1,35000002;
19:49:14:356;0,0253;0,0408;-0,0367;56,35329126;37,51191337;1,35000002;
19:49:14:390;0,0253;0,0408;-0,0367;56,35329126;37,51191337;1,35000002;
19:49:14:392;0,0253;0,0408;-0,0367;56,35329126;37,51191337;1,35000002;
19:49:14:394;0,0253;0,0408;-0,0367;56,35329126;37,51191337;1,35000002;
19:49:14:395;0,0253;0,0408;-0,0367;56,35329126;37,51191337;1,35000002;
19:49:14:435;0,0253;0,0408;-0,0367;56,35329126;37,51191337;1,35000002;
19:49:14:438;-0,0069;0,2282;0,0000;56,35329126;37,51191337;1,35000002;
19:49:14:440;-0,0069;0,2282;0,0000;56,35329126;37,51191337;1,35000002;
19:49:14:441;-0,0069;0,2282;0,0000;56,35329126;37,51191337;1,35000002;
19:49:14:442;-0,0069;0,2282;0,0000;56,35329126;37,51191337;1,35000002;
19:49:14:496;-0,0069;0,2282;0,0000;56,35329126;37,51191337;1,35000002;
19:49:14:498;-0,0205;0,2527;-0,0390;56,35329126;37,51191337;1,35000002;
19:49:14:528;-0,0205;0,2527;-0,0390;56,35329126;37,51191337;1,35000002;
19:49:14:530;-0,0205;0,2527;-0,0390;56,35329126;37,51191337;1,35000002;
19:49:14:532;-0,0205;0,2527;-0,0390;56,35329126;37,51191337;1,35000002;
19:49:14:534;-0,0205;0,2527;-0,0390;56,35329126;37,51191337;1,35000002;
19:49:14:576;-0,0205;0,2527;-0,0390;56,35329126;37,51191337;1,35000002;
19:49:14:580;0,0001;0,2237;0,0249;56,35329126;37,51191337;1,35000002;
19:49:14:616;0,0001;0,2237;0,0249;56,35329126;37,51191337;1,35000002;
19:49:14:619;-0,0024;0,2001;0,0221;56,35329126;37,51191337;1,35000002;
19:49:14:621;-0,0024;0,2001;0,0221;56,35329126;37,51191337;1,35000002;
19:49:14:623;-0,0024;0,2001;0,0221;56,35329126;37,51191337;1,35000002;
19:49:14:625;-0,0024;0,2001;0,0221;56,35329126;37,51191337;1,35000002;
19:49:14:627;-0,0024;0,2001;0,0221;56,35329126;37,51191337;1,35000002;
19:49:14:657;-0,0024;0,2001;0,0221;56,35329126;37,51191337;1,35000002;
19:49:14:661;-0,0091;0,1503;-0,0166;56,35329126;37,51191337;1,35000002;
19:49:14:717;-0,0091;0,1503;-0,0166;56,35329126;37,51191337;1,35000002;
19:49:14:720;-0,0091;0,1503;-0,0166;56,35329126;37,51191337;1,35000002;
19:49:14:722;-0,0091;0,1503;-0,0166;56,35329126;37,51191337;1,35000002;
19:49:14:723;-0,0091;0,1503;-0,0166;56,35329126;37,51191337;1,35000002;
19:49:14:725;-0,0091;0,1503;-0,0166;56,35329126;37,51191337;1,35000002;
19:49:14:727;-0,0091;0,1503;-0,0166;56,35329126;37,51191337;1,35000002;
19:49:14:729;-0,0091;0,1503;-0,0166;56,35329126;37,51191337;1,35000002;
19:49:14:730;-0,0050;0,1415;-0,0141;56,35329126;37,51191337;1,35000002;
19:49:14:777;-0,0050;0,1415;-0,0141;56,35329126;37,51191337;1,35000002;
19:49:14:778;0,0824;0,1186;-0,0445;56,35329126;37,51191337;1,35000002;
19:49:14:805;0,0824;0,1186;-0,0445;56,35329126;37,51191337;1,35000002;
19:49:14:809;0,0824;0,1186;-0,0445;56,35329126;37,51191337;1,35000002;
19:49:14:810;0,0824;0,1186;-0,0445;56,35329126;37,51191337;1,35000002;
19:49:14:812;0,0824;0,1186;-0,0445;56,35329126;37,51191337;1,35000002;
19:49:14:857;0,0824;0,1186;-0,0445;56,35329126;37,51191337;1,35000002;
19:49:14:858;-0,0414;0,0884;0,0060;56,35329126;37,51191337;1,35000002;
19:49:14:878;-0,0414;0,0884;0,0060;56,35329126;37,51191337;1,35000002;
19:49:14:881;-0,0414;0,0884;0,0060;56,35329126;37,51191337;1,35000002;
19:49:14:883;-0,0414;0,0884;0,0060;56,35329126;37,51191337;1,35000002;
19:49:14:918;-0,0414;0,0884;0,0060;56,35329126;37,51191337;1,35000002;
19:49:14:921;-0,0409;0,0580;-0,0093;56,35329126;37,51191337;1,35000002;
19:49:14:960;-0,0409;0,0580;-0,0093;56,35329126;37,51191337;1,35000002;
19:49:14:963;-0,0356;0,0542;-0,0082;56,35329126;37,51191337;1,35000002;
19:49:14:966;-0,0356;0,0542;-0,0082;56,35329126;37,51191337;1,35000002;
19:49:14:968;-0,0356;0,0542;-0,0082;56,35329126;37,51191337;1,35000002;
19:49:14:969;-0,0356;0,0542;-0,0082;56,35329126;37,51191337;1,35000002;
19:49:14:970;-0,0356;0,0542;-0,0082;56,35329126;37,51191337;1,35000002;
19:49:14:972;-0,0356;0,0542;-0,0082;56,35329126;37,51191337;1,35000002;
19:49:15:018;-0,0356;0,0542;-0,0082;56,35329126;37,51191337;1,35000002;
19:49:15:021;-0,0501;0,0227;0,0580;56,35329126;37,51191337;1,35000002;
19:49:15:049;-0,0501;0,0227;0,0580;56,35329126;37,51191337;1,35000002;
19:49:15:052;-0,0501;0,0227;0,0580;56,35329126;37,51191337;1,35000002;
19:49:15:055;-0,0501;0,0227;0,0580;56,35329126;37,51191337;1,35000002;
19:49:15:057;-0,0501;0,0227;0,0580;56,35329126;37,51191337;1,35000002;
19:49:15:099;-0,0501;0,0227;0,0580;56,35329126;37,51191337;1,35000002;
19:49:15:101;0,0248;-0,0176;-0,0059;56,35329126;37,51191337;1,35000002;
19:49:15:160;0,0248;-0,0176;-0,0059;56,35329126;37,51191337;1,35000002;
19:49:15:162;0,0248;-0,0176;-0,0059;56,35329126;37,51191337;1,35000002;
19:49:15:164;0,0248;-0,0176;-0,0059;56,35329126;37,51191337;1,35000002;
19:49:15:166;0,0248;-0,0176;-0,0059;56,35329126;37,51191337;1,35000002;
19:49:15:168;0,0248;-0,0176;-0,0059;56,35329126;37,51191337;1,35000002;
19:49:15:170;0,0248;-0,0176;-0,0059;56,35329126;37,51191337;1,35000002;
19:49:15:171;0,0248;-0,0176;-0,0059;56,35329126;37,51191337;1,35000002;
19:49:15:173;0,0287;-0,0034;-0,0421;56,35329126;37,51191337;1,35000002;
19:49:15:219;0,0287;-0,0034;-0,0421;56,35329126;37,51191337;1,35000002;
19:49:15:220;-0,0164;-0,0133;-0,0870;56,35329126;37,51191337;1,35000002;
19:49:15:248;-0,0164;-0,0133;-0,0870;56,35329126;37,51191337;1,35000002;
19:49:15:250;-0,0164;-0,0133;-0,0870;56,35329126;37,51191337;1,35000002;
19:49:15:252;-0,0164;-0,0133;-0,0870;56,35329126;37,51191337;1,35000002;
19:49:15:255;-0,0164;-0,0133;-0,0870;56,35329126;37,51191337;1,35000002;
19:49:15:301;-0,0164;-0,0133;-0,0870;56,35329126;37,51191337;1,35000002;
19:49:15:304;0,0147;-0,0350;0,0321;56,35329126;37,51191337;1,35000002;
19:49:15:305;0,0147;-0,0350;0,0321;56,35329126;37,51191337;1,35000002;
19:49:15:307;0,0147;-0,0350;0,0321;56,35329126;37,51191337;1,35000002;
19:49:15:308;0,0147;-0,0350;0,0321;56,35329126;37,51191337;1,35000002;
19:49:15:360;0,0147;-0,0350;0,0321;56,35329126;37,51191337;1,35000002;
19:49:15:361;-0,0054;-0,0151;0,0441;56,35328165;37,51195641;1,49000001;
19:49:15:391;-0,0054;-0,0151;0,0441;56,35328165;37,51195641;1,49000001;
19:49:15:392;-0,0058;-0,0143;0,0392;56,35328165;37,51195641;1,49000001;
19:49:15:395;-0,0058;-0,0143;0,0392;56,35328165;37,51195641;1,49000001;
19:49:15:396;-0,0058;-0,0143;0,0392;56,35328165;37,51195641;1,49000001;
19:49:15:397;-0,0058;-0,0143;0,0392;56,35328165;37,51195641;1,49000001;
19:49:15:398;-0,0058;-0,0143;0,0392;56,35328165;37,51195641;1,49000001;
19:49:15:440;-0,0058;-0,0143;0,0392;56,35328165;37,51195641;1,49000001;
19:49:15:442;-0,0332;-0,0179;0,0327;56,35328165;37,51195641;1,49000001;
19:49:15:482;-0,0332;-0,0179;0,0327;56,35328165;37,51195641;1,49000001;
19:49:15:485;-0,0332;-0,0179;0,0327;56,35328165;37,51195641;1,49000001;
19:49:15:487;-0,0332;-0,0179;0,0327;56,35328165;37,51195641;1,49000001;
19:49:15:488;-0,0332;-0,0179;0,0327;56,35328165;37,51195641;1,49000001;
19:49:15:490;-0,0332;-0,0179;0,0327;56,35328165;37,51195641;1,49000001;
19:49:15:541;-0,0332;-0,0179;0,0327;56,35328165;37,51195641;1,49000001;
19:49:15:544;0,0051;-0,0290;-0,0723;56,35328165;37,51195641;1,49000001;
19:49:15:602;0,0051;-0,0290;-0,0723;56,35328165;37,51195641;1,49000001;
19:49:15:604;0,0051;-0,0290;-0,0723;56,35328165;37,51195641;1,49000001;
19:49:15:606;0,0051;-0,0290;-0,0723;56,35328165;37,51195641;1,49000001;
19:49:15:608;0,0051;-0,0290;-0,0723;56,35328165;37,51195641;1,49000001;
19:49:15:610;0,0051;-0,0290;-0,0723;56,35328165;37,51195641;1,49000001;
19:49:15:611;0,0051;-0,0290;-0,0723;56,35328165;37,51195641;1,49000001;
19:49:15:612;0,0051;-0,0290;-0,0723;56,35328165;37,51195641;1,49000001;
19:49:15:614;0,0232;-0,0245;-0,0288;56,35328165;37,51195641;1,49000001;
19:49:15:661;0,0232;-0,0245;-0,0288;56,35328165;37,51195641;1,49000001;
19:49:15:664;0,0121;-0,0174;0,0106;56,35328165;37,51195641;1,49000001;
19:49:15:690;0,0121;-0,0174;0,0106;56,35328165;37,51195641;1,49000001;
19:49:15:693;0,0121;-0,0174;0,0106;56,35328165;37,51195641;1,49000001;
19:49:15:694;0,0121;-0,0174;0,0106;56,35328165;37,51195641;1,49000001;
19:49:15:696;0,0121;-0,0174;0,0106;56,35328165;37,51195641;1,49000001;
19:49:15:698;0,0121;-0,0174;0,0106;56,35328165;37,51195641;1,49000001;
19:49:15:700;0,0115;-0,0151;0,0095;56,35328165;37,51195641;1,49000001;
19:49:15:783;0,0115;-0,0151;0,0095;56,35328165;37,51195641;1,49000001;
19:49:15:786;0,0115;-0,0151;0,0095;56,35328165;37,51195641;1,49000001;
19:49:15:788;0,0115;-0,0151;0,0095;56,35328165;37,51195641;1,49000001;
19:49:15:790;0,0115;-0,0151;0,0095;56,35328165;37,51195641;1,49000001;
19:49:15:792;0,0115;-0,0151;0,0095;56,35328165;37,51195641;1,49000001;
19:49:15:793;0,0115;-0,0151;0,0095;56,35328165;37,51195641;1,49000001;
19:49:15:795;-0,0102;-0,0337;0,0099;56,35328165;37,51195641;1,49000001;
19:49:15:842;-0,0102;-0,0337;0,0099;56,35328165;37,51195641;1,49000001;
19:49:15:845;-0,0119;-0,0346;0,0379;56,35328165;37,51195641;1,49000001;
19:49:15:871;-0,0119;-0,0346;0,0379;56,35328165;37,51195641;1,49000001;
19:49:15:875;-0,0145;-0,0315;0,0335;56,35328165;37,51195641;1,49000001;
19:49:15:877;-0,0145;-0,0315;0,0335;56,35328165;37,51195641;1,49000001;
19:49:15:879;-0,0145;-0,0315;0,0335;56,35328165;37,51195641;1,49000001;
19:49:15:880;-0,0145;-0,0315;0,0335;56,35328165;37,51195641;1,49000001;
19:49:15:882;-0,0145;-0,0315;0,0335;56,35328165;37,51195641;1,49000001;
19:49:15:923;-0,0145;-0,0315;0,0335;56,35328165;37,51195641;1,49000001;
19:49:15:926;-0,0538;-0,0300;-0,0043;56,35328165;37,51195641;1,49000001;
19:49:15:952;-0,0538;-0,0300;-0,0043;56,35328165;37,51195641;1,49000001;
19:49:15:956;-0,0538;-0,0300;-0,0043;56,35328165;37,51195641;1,49000001;
19:49:15:958;-0,0538;-0,0300;-0,0043;56,35328165;37,51195641;1,49000001;
19:49:15:983;-0,0538;-0,0300;-0,0043;56,35328165;37,51195641;1,49000001;
19:49:15:987;0,0288;-0,0146;-0,0201;56,35328165;37,51195641;1,49000001;
19:49:16:040;0,0288;-0,0146;-0,0201;56,35328165;37,51195641;1,49000001;
19:49:16:045;0,0288;-0,0146;-0,0201;56,35328165;37,51195641;1,49000001;
19:49:16:047;0,0288;-0,0146;-0,0201;56,35328165;37,51195641;1,49000001;
19:49:16:048;0,0288;-0,0146;-0,0201;56,35328165;37,51195641;1,49000001;
19:49:16:055;0,0288;-0,0146;-0,0201;56,35328165;37,51195641;1,49000001;
19:49:16:083;0,0288;-0,0146;-0,0201;56,35328165;37,51195641;1,49000001;
19:49:16:085;0,0663;0,0854;-0,0589;56,35328165;37,51195641;1,49000001;
19:49:16:129;0,0663;0,0854;-0,0589;56,35328165;37,51195641;1,49000001;
19:49:16:132;-0,0092;0,1262;-0,0267;56,35328165;37,51195641;1,49000001;
19:49:16:135;-0,0092;0,1262;-0,0267;56,35328165;37,51195641;1,49000001;
19:49:16:136;-0,0092;0,1262;-0,0267;56,35328165;37,51195641;1,49000001;
19:49:16:138;-0,0092;0,1262;-0,0267;56,35328165;37,51195641;1,49000001;
19:49:16:140;-0,0092;0,1262;-0,0267;56,35328165;37,51195641;1,49000001;
19:49:16:142;-0,0092;0,1262;-0,0267;56,35328165;37,51195641;1,49000001;
19:49:16:185;-0,0092;0,1262;-0,0267;56,35328165;37,51195641;1,49000001;
19:49:16:188;-0,0099;0,1373;0,1155;56,35328165;37,51195641;1,49000001;
19:49:16:245;-0,0099;0,1373;0,1155;56,35328165;37,51195641;1,49000001;
19:49:16:248;-0,0099;0,1373;0,1155;56,35328165;37,51195641;1,49000001;
19:49:16:250;-0,0099;0,1373;0,1155;56,35328165;37,51195641;1,49000001;
19:49:16:251;-0,0099;0,1373;0,1155;56,35328165;37,51195641;1,49000001;
19:49:16:253;-0,0099;0,1373;0,1155;56,35328165;37,51195641;1,49000001;
19:49:16:254;-0,0099;0,1373;0,1155;56,35328165;37,51195641;1,49000001;
19:49:16:256;-0,0099;0,1373;0,1155;56,35328165;37,51195641;1,49000001;
19:49:16:258;-0,0806;0,0915;0,0807;56,35328165;37,51195641;1,49000001;
19:49:16:304;-0,0806;0,0915;0,0807;56,35328165;37,51195641;1,49000001;
19:49:16:306;-0,0174;0,1028;0,0164;56,35327230;37,51198788;1,65999997;
19:49:16:332;-0,0174;0,1028;0,0164;56,35327230;37,51198788;1,65999997;
19:49:16:334;-0,0174;0,1028;0,0164;56,35327230;37,51198788;1,65999997;
19:49:16:337;-0,0174;0,1028;0,0164;56,35327230;37,51198788;1,65999997;
19:49:16:338;-0,0174;0,1028;0,0164;56,35327230;37,51198788;1,65999997;
19:49:16:384;-0,0174;0,1028;0,0164;56,35327230;37,51198788;1,65999997;
19:49:16:385;0,0203;0,0816;-0,1699;56,35327230;37,51198788;1,65999997;
19:49:16:421;0,0203;0,0816;-0,1699;56,35327230;37,51198788;1,65999997;
19:49:16:424;0,0203;0,0816;-0,1699;56,35327230;37,51198788;1,65999997;
19:49:16:425;0,0203;0,0816;-0,1699;56,35327230;37,51198788;1,65999997;
19:49:16:446;0,0203;0,0816;-0,1699;56,35327230;37,51198788;1,65999997;
19:49:16:449;0,0493;0,0873;-0,0929;56,35327230;37,51198788;1,65999997;
19:49:16:508;0,0493;0,0873;-0,0929;56,35327230;37,51198788;1,65999997;
19:49:16:511;0,0493;0,0873;-0,0929;56,35327230;37,51198788;1,65999997;
19:49:16:512;0,0493;0,0873;-0,0929;56,35327230;37,51198788;1,65999997;
19:49:16:515;0,0493;0,0873;-0,0929;56,35327230;37,51198788;1,65999997;
19:49:16:516;0,0493;0,0873;-0,0929;56,35327230;37,51198788;1,65999997;
19:49:16:518;0,0493;0,0873;-0,0929;56,35327230;37,51198788;1,65999997;
19:49:16:520;0,0493;0,0873;-0,0929;56,35327230;37,51198788;1,65999997;
19:49:16:522;0,0046;0,0523;0,0388;56,35327230;37,51198788;1,65999997;
19:49:16:567;0,0046;0,0523;0,0388;56,35327230;37,51198788;1,65999997;
19:49:16:569;0,0093;0,0380;0,1154;56,35327230;37,51198788;1,65999997;
19:49:16:594;0,0093;0,0380;0,1154;56,35327230;37,51198788;1,65999997;
19:49:16:597;0,0093;0,0380;0,1154;56,35327230;37,51198788;1,65999997;
19:49:16:599;0,0093;0,0380;0,1154;56,35327230;37,51198788;1,65999997;
19:49:16:601;0,0093;0,0380;0,1154;56,35327230;37,51198788;1,65999997;
19:49:16:605;0,0093;0,0380;0,1154;56,35327230;37,51198788;1,65999997;
19:49:16:607;0,0095;0,0347;0,1026;56,35327230;37,51198788;1,65999997;
19:49:16:647;0,0095;0,0347;0,1026;56,35327230;37,51198788;1,65999997;
19:49:16:650;-0,0435;0,0217;0,0005;56,35327230;37,51198788;1,65999997;
19:49:16:708;-0,0435;0,0217;0,0005;56,35327230;37,51198788;1,65999997;
19:49:16:711;-0,0435;0,0217;0,0005;56,35327230;37,51198788;1,65999997;
19:49:16:713;-0,0435;0,0217;0,0005;56,35327230;37,51198788;1,65999997;
19:49:16:715;-0,0435;0,0217;0,0005;56,35327230;37,51198788;1,65999997;
19:49:16:717;-0,0435;0,0217;0,0005;56,35327230;37,51198788;1,65999997;
19:49:16:718;-0,0435;0,0217;0,0005;56,35327230;37,51198788;1,65999997;
19:49:16:720;-0,0435;0,0217;0,0005;56,35327230;37,51198788;1,65999997;
19:49:16:722;-0,0203;0,0206;-0,0648;56,35327230;37,51198788;1,65999997;
19:49:16:767;-0,0203;0,0206;-0,0648;56,35327230;37,51198788;1,65999997;
19:49:16:770;0,0057;0,0125;-0,0860;56,35327230;37,51198788;1,65999997;
19:49:16:797;0,0057;0,0125;-0,0860;56,35327230;37,51198788;1,65999997;
19:49:16:800;0,0057;0,0125;-0,0860;56,35327230;37,51198788;1,65999997;
19:49:16:802;0,0057;0,0125;-0,0860;56,35327230;37,51198788;1,65999997;
19:49:16:805;0,0057;0,0125;-0,0860;56,35327230;37,51198788;1,65999997;
19:49:16:848;0,0057;0,0125;-0,0860;56,35327230;37,51198788;1,65999997;
19:49:16:851;0,0200;0,0064;0,0605;56,35327230;37,51198788;1,65999997;
19:49:16:909;0,0200;0,0064;0,0605;56,35327230;37,51198788;1,65999997;
19:49:16:912;0,0200;0,0064;0,0605;56,35327230;37,51198788;1,65999997;
19:49:16:914;0,0200;0,0064;0,0605;56,35327230;37,51198788;1,65999997;
19:49:16:915;0,0200;0,0064;0,0605;56,35327230;37,51198788;1,65999997;
19:49:16:917;0,0200;0,0064;0,0605;56,35327230;37,51198788;1,65999997;
19:49:16:918;0,0200;0,0064;0,0605;56,35327230;37,51198788;1,65999997;
19:49:16:920;0,0200;0,0064;0,0605;56,35327230;37,51198788;1,65999997;
19:49:16:921;-0,0164;-0,0289;-0,0244;56,35327230;37,51198788;1,65999997;
19:49:16:969;-0,0164;-0,0289;-0,0244;56,35327230;37,51198788;1,65999997;
19:49:16:972;0,0180;-0,0464;-0,0359;56,35327230;37,51198788;1,65999997;
19:49:16:996;0,0180;-0,0464;-0,0359;56,35327230;37,51198788;1,65999997;
19:49:16:999;0,0180;-0,0464;-0,0359;56,35327230;37,51198788;1,65999997;
19:49:17:002;0,0180;-0,0464;-0,0359;56,35327230;37,51198788;1,65999997;
19:49:17:005;0,0180;-0,0464;-0,0359;56,35327230;37,51198788;1,65999997;
19:49:17:049;0,0180;-0,0464;-0,0359;56,35327230;37,51198788;1,65999997;
19:49:17:052;0,0160;-0,0490;0,0007;56,35327230;37,51198788;1,65999997;
19:49:17:110;0,0160;-0,0490;0,0007;56,35327230;37,51198788;1,65999997;
19:49:17:113;0,0160;-0,0490;0,0007;56,35327230;37,51198788;1,65999997;
19:49:17:115;0,0160;-0,0490;0,0007;56,35327230;37,51198788;1,65999997;
19:49:17:118;0,0160;-0,0490;0,0007;56,35327230;37,51198788;1,65999997;
19:49:17:119;0,0160;-0,0490;0,0007;56,35327230;37,51198788;1,65999997;
19:49:17:121;0,0160;-0,0490;0,0007;56,35327230;37,51198788;1,65999997;
19:49:17:123;0,0160;-0,0490;0,0007;56,35327230;37,51198788;1,65999997;
19:49:17:124;0,0120;-0,0520;-0,0135;56,35327230;37,51198788;1,65999997;
19:49:17:170;0,0120;-0,0520;-0,0135;56,35327230;37,51198788;1,65999997;
19:49:17:172;0,0291;-0,0714;-0,0815;56,35327230;37,51198788;1,65999997;
19:49:17:197;0,0291;-0,0714;-0,0815;56,35327230;37,51198788;1,65999997;
19:49:17:200;0,0267;-0,0614;-0,0723;56,35327230;37,51198788;1,65999997;
19:49:17:203;0,0267;-0,0614;-0,0723;56,35327230;37,51198788;1,65999997;
19:49:17:206;0,0267;-0,0614;-0,0723;56,35327230;37,51198788;1,65999997;
19:49:17:209;0,0267;-0,0614;-0,0723;56,35327230;37,51198788;1,65999997;
19:49:17:211;0,0267;-0,0614;-0,0723;56,35327230;37,51198788;1,65999997;
19:49:17:249;0,0267;-0,0614;-0,0723;56,35327230;37,51198788;1,65999997;
19:49:17:251;-0,0393;-0,0781;0,0060;56,35327230;37,51198788;1,65999997;
19:49:17:286;-0,0393;-0,0781;0,0060;56,35327230;37,51198788;1,65999997;
19:49:17:287;-0,0393;-0,0781;0,0060;56,35327230;37,51198788;1,65999997;
19:49:17:289;-0,0393;-0,0781;0,0060;56,35327230;37,51198788;1,65999997;
19:49:17:290;-0,0393;-0,0781;0,0060;56,35327230;37,51198788;1,65999997;
19:49:17:329;-0,0393;-0,0781;0,0060;56,35327230;37,51198788;1,65999997;
19:49:17:331;-0,0134;-0,0899;0,0749;56,35326512;37,51202270;1,90999997;
19:49:17:372;-0,0134;-0,0899;0,0749;56,35326512;37,51202270;1,90999997;
19:49:17:375;-0,0126;-0,0783;0,0666;56,35326512;37,51202270;1,90999997;
19:49:17:376;-0,0126;-0,0783;0,0666;56,35326512;37,51202270;1,90999997;
19:49:17:378;-0,0126;-0,0783;0,0666;56,35326512;37,51202270;1,90999997;
19:49:17:379;-0,0126;-0,0783;0,0666;56,35326512;37,51202270;1,90999997;
19:49:17:380;-0,0126;-0,0783;0,0666;56,35326512;37,51202270;1,90999997;
19:49:17:381;-0,0126;-0,0783;0,0666;56,35326512;37,51202270;1,90999997;
19:49:17:431;-0,0126;-0,0783;0,0666;56,35326512;37,51202270;1,90999997;
19:49:17:434;0,0162;-0,0769;-0,0181;56,35326512;37,51202270;1,90999997;
19:49:17:462;0,0162;-0,0769;-0,0181;56,35326512;37,51202270;1,90999997;
19:49:17:465;0,0162;-0,0769;-0,0181;56,35326512;37,51202270;1,90999997;
19:49:17:467;0,0162;-0,0769;-0,0181;56,35326512;37,51202270;1,90999997;
19:49:17:469;0,0162;-0,0769;-0,0181;56,35326512;37,51202270;1,90999997;
19:49:17:511;0,0162;-0,0769;-0,0181;56,35326512;37,51202270;1,90999997;
19:49:17:514;0,0480;-0,0512;-0,0352;56,35326512;37,51202270;1,90999997;
19:49:17:571;0,0480;-0,0512;-0,0352;56,35326512;37,51202270;1,90999997;
19:49:17:574;0,0480;-0,0512;-0,0352;56,35326512;37,51202270;1,90999997;
19:49:17:576;0,0480;-0,0512;-0,0352;56,35326512;37,51202270;1,90999997;
19:49:17:578;0,0480;-0,0512;-0,0352;56,35326512;37,51202270;1,90999997;
19:49:17:579;0,0480;-0,0512;-0,0352;56,35326512;37,51202270;1,90999997;
19:49:17:580;0,0480;-0,0512;-0,0352;56,35326512;37,51202270;1,90999997;
19:49:17:582;0,0480;-0,0512;-0,0352;56,35326512;37,51202270;1,90999997;
19:49:17:584;-0,0127;-0,0854;0,0623;56,35326512;37,51202270;1,90999997;
19:49:17:633;-0,0127;-0,0854;0,0623;56,35326512;37,51202270;1,90999997;
19:49:17:637;-0,0481;-0,0865;0,0825;56,35326512;37,51202270;1,90999997;
19:49:17:661;-0,0481;-0,0865;0,0825;56,35326512;37,51202270;1,90999997;
19:49:17:664;-0,0481;-0,0865;0,0825;56,35326512;37,51202270;1,90999997;
19:49:17:665;-0,0481;-0,0865;0,0825;56,35326512;37,51202270;1,90999997;
19:49:17:666;-0,0481;-0,0865;0,0825;56,35326512;37,51202270;1,90999997;
19:49:17:712;-0,0481;-0,0865;0,0825;56,35326512;37,51202270;1,90999997;
19:49:17:715;-0,0490;-0,0784;-0,0167;56,35326512;37,51202270;1,90999997;
19:49:17:774;-0,0490;-0,0784;-0,0167;56,35326512;37,51202270;1,90999997;
19:49:17:776;-0,0490;-0,0784;-0,0167;56,35326512;37,51202270;1,90999997;
19:49:17:778;-0,0490;-0,0784;-0,0167;56,35326512;37,51202270;1,90999997;
19:49:17:780;-0,0490;-0,0784;-0,0167;56,35326512;37,51202270;1,90999997;
19:49:17:781;-0,0490;-0,0784;-0,0167;56,35326512;37,51202270;1,90999997;
19:49:17:783;-0,0490;-0,0784;-0,0167;56,35326512;37,51202270;1,90999997;
19:49:17:785;-0,0490;-0,0784;-0,0167;56,35326512;37,51202270;1,90999997;
19:49:17:787;0,0036;-0,0593;-0,0865;56,35326512;37,51202270;1,90999997;
19:49:17:807;0,0036;-0,0593;-0,0865;56,35326512;37,51202270;1,90999997;
19:49:17:810;0,0005;-0,0530;-0,0770;56,35326512;37,51202270;1,90999997;
19:49:17:854;0,0005;-0,0530;-0,0770;56,35326512;37,51202270;1,90999997;
19:49:17:856;0,0005;-0,0530;-0,0770;56,35326512;37,51202270;1,90999997;
19:49:17:858;0,0005;-0,0530;-0,0770;56,35326512;37,51202270;1,90999997;
19:49:17:859;0,0005;-0,0530;-0,0770;56,35326512;37,51202270;1,90999997;
19:49:17:861;0,0005;-0,0530;-0,0770;56,35326512;37,51202270;1,90999997;
19:49:17:862;0,0180;-0,0588;-0,0317;56,35326512;37,51202270;1,90999997;
19:49:17:913;0,0180;-0,0588;-0,0317;56,35326512;37,51202270;1,90999997;
19:49:17:917;0,0110;-0,0583;0,0364;56,35326512;37,51202270;1,90999997;
19:49:17:974;0,0110;-0,0583;0,0364;56,35326512;37,51202270;1,90999997;
19:49:17:975;0,0110;-0,0583;0,0364;56,35326512;37,51202270;1,90999997;
19:49:17:977;0,0110;-0,0583;0,0364;56,35326512;37,51202270;1,90999997;
19:49:17:978;0,0110;-0,0583;0,0364;56,35326512;37,51202270;1,90999997;
19:49:17:979;0,0110;-0,0583;0,0364;56,35326512;37,51202270;1,90999997;
19:49:17:980;0,0110;-0,0583;0,0364;56,35326512;37,51202270;1,90999997;
19:49:17:981;0,0110;-0,0583;0,0364;56,35326512;37,51202270;1,90999997;
19:49:17:981;0,0401;-0,0475;0,0699;56,35326512;37,51202270;1,90999997;
19:49:18:033;0,0401;-0,0475;0,0699;56,35326512;37,51202270;1,90999997;
19:49:18:035;0,0327;-0,0463;0,0061;56,35326512;37,51202270;1,90999997;
19:49:18:062;0,0327;-0,0463;0,0061;56,35326512;37,51202270;1,90999997;
19:49:18:066;0,0327;-0,0463;0,0061;56,35326512;37,51202270;1,90999997;
19:49:18:068;0,0327;-0,0463;0,0061;56,35326512;37,51202270;1,90999997;
19:49:18:070;0,0327;-0,0463;0,0061;56,35326512;37,51202270;1,90999997;
19:49:18:114;0,0327;-0,0463;0,0061;56,35326512;37,51202270;1,90999997;
19:49:18:117;-0,0009;-0,0412;-0,0236;56,35326512;37,51202270;1,90999997;
19:49:18:175;-0,0009;-0,0412;-0,0236;56,35326512;37,51202270;1,90999997;
19:49:18:178;-0,0009;-0,0412;-0,0236;56,35326512;37,51202270;1,90999997;
19:49:18:180;-0,0009;-0,0412;-0,0236;56,35326512;37,51202270;1,90999997;
19:49:18:181;-0,0009;-0,0412;-0,0236;56,35326512;37,51202270;1,90999997;
19:49:18:183;-0,0009;-0,0412;-0,0236;56,35326512;37,51202270;1,90999997;
19:49:18:184;-0,0009;-0,0412;-0,0236;56,35326512;37,51202270;1,90999997;
19:49:18:185;-0,0009;-0,0412;-0,0236;56,35326512;37,51202270;1,90999997;
19:49:18:186;-0,0390;-0,0346;-0,0330;56,35326512;37,51202270;1,90999997;
19:49:18:234;-0,0390;-0,0346;-0,0330;56,35326512;37,51202270;1,90999997;
19:49:18:236;-0,0338;-0,0465;-0,0171;56,35326512;37,51202270;1,90999997;
19:49:18:264;-0,0338;-0,0465;-0,0171;56,35326512;37,51202270;1,90999997;
19:49:18:268;-0,0338;-0,0465;-0,0171;56,35326512;37,51202270;1,90999997;
19:49:18:270;-0,0338;-0,0465;-0,0171;56,35326512;37,51202270;1,90999997;
19:49:18:274;-0,0338;-0,0465;-0,0171;56,35326512;37,51202270;1,90999997;
19:49:18:314;-0,0338;-0,0465;-0,0171;56,35326512;37,51202270;1,90999997;
19:49:18:316;-0,0133;-0,0558;0,0748;56,35325820;37,51205007;2,02999997;
19:49:18:327;-0,0133;-0,0558;0,0748;56,35325820;37,51205007;2,02999997;
19:49:18:328;-0,0133;-0,0558;0,0748;56,35325820;37,51205007;2,02999997;
19:49:18:329;-0,0133;-0,0558;0,0748;56,35325820;37,51205007;2,02999997;
19:49:18:375;-0,0133;-0,0558;0,0748;56,35325820;37,51205007;2,02999997;
19:49:18:376;0,0144;-0,0552;0,0728;56,35325820;37,51205007;2,02999997;
19:49:18:417;0,0144;-0,0552;0,0728;56,35325820;37,51205007;2,02999997;
19:49:18:420;0,0144;-0,0552;0,0728;56,35325820;37,51205007;2,02999997;
19:49:18:422;0,0144;-0,0552;0,0728;56,35325820;37,51205007;2,02999997;
19:49:18:424;0,0144;-0,0552;0,0728;56,35325820;37,51205007;2,02999997;
19:49:18:427;0,0144;-0,0552;0,0728;56,35325820;37,51205007;2,02999997;
19:49:18:429;0,0144;-0,0552;0,0728;56,35325820;37,51205007;2,02999997;
19:49:18:431;0,0699;-0,0410;-0,0276;56,35325820;37,51205007;2,02999997;
19:49:18:477;0,0699;-0,0410;-0,0276;56,35325820;37,51205007;2,02999997;
19:49:18:479;0,0816;-0,0395;-0,0181;56,35325820;37,51205007;2,02999997;
19:49:18:506;0,0816;-0,0395;-0,0181;56,35325820;37,51205007;2,02999997;
19:49:18:508;0,0816;-0,0395;-0,0181;56,35325820;37,51205007;2,02999997;
19:49:18:511;0,0816;-0,0395;-0,0181;56,35325820;37,51205007;2,02999997;
19:49:18:512;0,0816;-0,0395;-0,0181;56,35325820;37,51205007;2,02999997;
19:49:18:556;0,0816;-0,0395;-0,0181;56,35325820;37,51205007;2,02999997;
19:49:18:558;0,0159;-0,0442;0,0286;56,35325820;37,51205007;2,02999997;
19:49:18:618;0,0159;-0,0442;0,0286;56,35325820;37,51205007;2,02999997;
19:49:18:621;0,0159;-0,0442;0,0286;56,35325820;37,51205007;2,02999997;
19:49:18:622;0,0159;-0,0442;0,0286;56,35325820;37,51205007;2,02999997;
19:49:18:624;0,0159;-0,0442;0,0286;56,35325820;37,51205007;2,02999997;
19:49:18:626;0,0159;-0,0442;0,0286;56,35325820;37,51205007;2,02999997;
19:49:18:628;0,0159;-0,0442;0,0286;56,35325820;37,51205007;2,02999997;
19:49:18:629;0,0159;-0,0442;0,0286;56,35325820;37,51205007;2,02999997;
19:49:18:631;-0,0474;-0,0293;-0,0079;56,35325820;37,51205007;2,02999997;
19:49:18:678;-0,0474;-0,0293;-0,0079;56,35325820;37,51205007;2,02999997;
19:49:18:680;-0,0724;-0,0442;-0,0467;56,35325820;37,51205007;2,02999997;
19:49:18:706;-0,0724;-0,0442;-0,0467;56,35325820;37,51205007;2,02999997;
19:49:18:708;-0,0659;-0,0392;-0,0415;56,35325820;37,51205007;2,02999997;
19:49:18:710;-0,0659;-0,0392;-0,0415;56,35325820;37,51205007;2,02999997;
19:49:18:712;-0,0659;-0,0392;-0,0415;56,35325820;37,51205007;2,02999997;
19:49:18:714;-0,0659;-0,0392;-0,0415;56,35325820;37,51205007;2,02999997;
19:49:18:716;-0,0659;-0,0392;-0,0415;56,35325820;37,51205007;2,02999997;
19:49:18:757;-0,0659;-0,0392;-0,0415;56,35325820;37,51205007;2,02999997;
19:49:18:759;-0,0267;-0,0176;-0,0120;56,35325820;37,51205007;2,02999997;
19:49:18:762;-0,0267;-0,0176;-0,0120;56,35325820;37,51205007;2,02999997;
19:49:18:765;-0,0267;-0,0176;-0,0120;56,35325820;37,51205007;2,02999997;
19:49:18:767;-0,0267;-0,0176;-0,0120;56,35325820;37,51205007;2,02999997;
19:49:18:818;-0,0267;-0,0176;-0,0120;56,35325820;37,51205007;2,02999997;
19:49:18:821;0,0322;-0,0212;0,0405;56,35325820;37,51205007;2,02999997;
19:49:18:850;0,0322;-0,0212;0,0405;56,35325820;37,51205007;2,02999997;
19:49:18:853;0,0322;-0,0212;0,0405;56,35325820;37,51205007;2,02999997;
19:49:18:855;0,0322;-0,0212;0,0405;56,35325820;37,51205007;2,02999997;
19:49:18:858;0,0322;-0,0212;0,0405;56,35325820;37,51205007;2,02999997;
19:49:18:898;0,0322;-0,0212;0,0405;56,35325820;37,51205007;2,02999997;
19:49:18:901;0,0369;-0,0361;0,0465;56,35325820;37,51205007;2,02999997;
19:49:18:937;0,0369;-0,0361;0,0465;56,35325820;37,51205007;2,02999997;
19:49:18:940;0,0369;-0,0361;0,0465;56,35325820;37,51205007;2,02999997;
19:49:18:942;0,0369;-0,0361;0,0465;56,35325820;37,51205007;2,02999997;
19:49:18:945;0,0369;-0,0361;0,0465;56,35325820;37,51205007;2,02999997;
19:49:18:979;0,0369;-0,0361;0,0465;56,35325820;37,51205007;2,02999997;
19:49:18:982;-0,0366;-0,0487;0,0077;56,35325820;37,51205007;2,02999997;
19:49:19:040;-0,0366;-0,0487;0,0077;56,35325820;37,51205007;2,02999997;
19:49:19:043;-0,0366;-0,0487;0,0077;56,35325820;37,51205007;2,02999997;
19:49:19:045;-0,0366;-0,0487;0,0077;56,35325820;37,51205007;2,02999997;
19:49:19:047;-0,0366;-0,0487;0,0077;56,35325820;37,51205007;2,02999997;
19:49:19:049;-0,0366;-0,0487;0,0077;56,35325820;37,51205007;2,02999997;
19:49:19:051;-0,0366;-0,0487;0,0077;56,35325820;37,51205007;2,02999997;
19:49:19:053;-0,0366;-0,0487;0,0077;56,35325820;37,51205007;2,02999997;
19:49:19:054;-0,0088;-0,0198;-0,0089;56,35325820;37,51205007;2,02999997;
19:49:19:098;-0,0088;-0,0198;-0,0089;56,35325820;37,51205007;2,02999997;
19:49:19:105;0,0692;0,0074;-0,0156;56,35325820;37,51205007;2,02999997;
19:49:19:130;0,0692;0,0074;-0,0156;56,35325820;37,51205007;2,02999997;
19:49:19:132;0,0692;0,0074;-0,0156;56,35325820;37,51205007;2,02999997;
19:49:19:134;0,0692;0,0074;-0,0156;56,35325820;37,51205007;2,02999997;
19:49:19:136;0,0692;0,0074;-0,0156;56,35325820;37,51205007;2,02999997;
19:49:19:139;0,0692;0,0074;-0,0156;56,35325820;37,51205007;2,02999997;
19:49:19:141;0,0608;0,0072;-0,0139;56,35325820;37,51205007;2,02999997;
19:49:19:180;0,0608;0,0072;-0,0139;56,35325820;37,51205007;2,02999997;
19:49:19:184;0,0079;-0,0002;-0,0464;56,35325820;37,51205007;2,02999997;
19:49:19:198;0,0079;-0,0002;-0,0464;56,35325820;37,51205007;2,02999997;
19:49:19:201;0,0079;-0,0002;-0,0464;56,35325820;37,51205007;2,02999997;
19:49:19:204;0,0079;-0,0002;-0,0464;56,35325820;37,51205007;2,02999997;
19:49:19:241;0,0079;-0,0002;-0,0464;56,35325820;37,51205007;2,02999997;
19:49:19:245;-0,0029;-0,0084;-0,0141;56,35325820;37,51205007;2,02999997;
19:49:19:282;-0,0029;-0,0084;-0,0141;56,35325820;37,51205007;2,02999997;
19:49:19:285;-0,0029;-0,0084;-0,0141;56,35325820;37,51205007;2,02999997;
19:49:19:287;-0,0029;-0,0084;-0,0141;56,35325820;37,51205007;2,02999997;
19:49:19:291;-0,0029;-0,0084;-0,0141;56,35325820;37,51205007;2,02999997;
19:49:19:294;-0,0029;-0,0084;-0,0141;56,35325820;37,51205007;2,02999997;
19:49:19:339;-0,0029;-0,0084;-0,0141;56,35325820;37,51205007;2,02999997;
19:49:19:341;-0,0019;-0,0533;0,0769;56,35325444;37,51208547;2,00999999;
19:49:19:368;-0,0019;-0,0533;0,0769;56,35325444;37,51208547;2,00999999;
19:49:19:370;-0,0019;-0,0533;0,0769;56,35325444;37,51208547;2,00999999;
19:49:19:372;-0,0019;-0,0533;0,0769;56,35325444;37,51208547;2,00999999;
19:49:19:373;-0,0019;-0,0533;0,0769;56,35325444;37,51208547;2,00999999;
19:49:19:374;-0,0019;-0,0533;0,0769;56,35325444;37,51208547;2,00999999;
19:49:19:375;-0,0014;-0,0474;0,0684;56,35325444;37,51208547;2,00999999;
19:49:19:420;-0,0014;-0,0474;0,0684;56,35325444;37,51208547;2,00999999;
19:49:19:422;-0,0352;-0,0683;-0,0208;56,35325444;37,51208547;2,00999999;
19:49:19:482;-0,0352;-0,0683;-0,0208;56,35325444;37,51208547;2,00999999;
19:49:19:485;-0,0352;-0,0683;-0,0208;56,35325444;37,51208547;2,00999999;
19:49:19:487;-0,0352;-0,0683;-0,0208;56,35325444;37,51208547;2,00999999;
19:49:19:489;-0,0352;-0,0683;-0,0208;56,35325444;37,51208547;2,00999999;
19:49:19:490;-0,0352;-0,0683;-0,0208;56,35325444;37,51208547;2,00999999;
19:49:19:491;-0,0352;-0,0683;-0,0208;56,35325444;37,51208547;2,00999999;
19:49:19:493;-0,0352;-0,0683;-0,0208;56,35325444;37,51208547;2,00999999;
19:49:19:495;0,0065;-0,1012;-0,0304;56,35325444;37,51208547;2,00999999;
19:49:19:542;0,0065;-0,1012;-0,0304;56,35325444;37,51208547;2,00999999;
19:49:19:545;0,0039;-0,1574;0,0127;56,35325444;37,51208547;2,00999999;
19:49:19:571;0,0039;-0,1574;0,0127;56,35325444;37,51208547;2,00999999;
19:49:19:575;0,0039;-0,1574;0,0127;56,35325444;37,51208547;2,00999999;
19:49:19:576;0,0039;-0,1574;0,0127;56,35325444;37,51208547;2,00999999;
19:49:19:578;0,0039;-0,1574;0,0127;56,35325444;37,51208547;2,00999999;
19:49:19:623;0,0039;-0,1574;0,0127;56,35325444;37,51208547;2,00999999;
19:49:19:625;0,0098;-0,2333;0,0253;56,35325444;37,51208547;2,00999999;
19:49:19:629;0,0098;-0,2333;0,0253;56,35325444;37,51208547;2,00999999;
19:49:19:631;0,0098;-0,2333;0,0253;56,35325444;37,51208547;2,00999999;
19:49:19:633;0,0098;-0,2333;0,0253;56,35325444;37,51208547;2,00999999;
19:49:19:683;0,0098;-0,2333;0,0253;56,35325444;37,51208547;2,00999999;
19:49:19:695;0,0021;-0,2728;-0,0499;56,35325444;37,51208547;2,00999999;
19:49:19:713;0,0021;-0,2728;-0,0499;56,35325444;37,51208547;2,00999999;
19:49:19:717;0,0021;-0,2728;-0,0499;56,35325444;37,51208547;2,00999999;
19:49:19:719;0,0021;-0,2728;-0,0499;56,35325444;37,51208547;2,00999999;
19:49:19:722;0,0021;-0,2728;-0,0499;56,35325444;37,51208547;2,00999999;
19:49:19:762;0,0021;-0,2728;-0,0499;56,35325444;37,51208547;2,00999999;
19:49:19:764;0,0420;-0,2876;0,0466;56,35325444;37,51208547;2,00999999;
19:49:19:800;0,0420;-0,2876;0,0466;56,35325444;37,51208547;2,00999999;
19:49:19:802;0,0375;-0,2551;0,0414;56,35325444;37,51208547;2,00999999;
19:49:19:804;0,0375;-0,2551;0,0414;56,35325444;37,51208547;2,00999999;
19:49:19:805;0,0375;-0,2551;0,0414;56,35325444;37,51208547;2,00999999;
19:49:19:806;0,0375;-0,2551;0,0414;56,35325444;37,51208547;2,00999999;
19:49:19:807;0,0375;-0,2551;0,0414;56,35325444;37,51208547;2,00999999;
19:49:19:842;0,0375;-0,2551;0,0414;56,35325444;37,51208547;2,00999999;
19:49:19:843;0,0604;-0,2143;0,0495;56,35325444;37,51208547;2,00999999;
19:49:19:903;0,0604;-0,2143;0,0495;56,35325444;37,51208547;2,00999999;
19:49:19:905;0,0604;-0,2143;0,0495;56,35325444;37,51208547;2,00999999;
19:49:19:906;0,0604;-0,2143;0,0495;56,35325444;37,51208547;2,00999999;
19:49:19:907;0,0604;-0,2143;0,0495;56,35325444;37,51208547;2,00999999;
19:49:19:908;0,0604;-0,2143;0,0495;56,35325444;37,51208547;2,00999999;
19:49:19:908;0,0604;-0,2143;0,0495;56,35325444;37,51208547;2,00999999;
19:49:19:909;0,0604;-0,2143;0,0495;56,35325444;37,51208547;2,00999999;
19:49:19:909;-0,0019;-0,1669;-0,0042;56,35325444;37,51208547;2,00999999;
19:49:19:964;-0,0019;-0,1669;-0,0042;56,35325444;37,51208547;2,00999999;
19:49:19:967;-0,0036;-0,1351;-0,0209;56,35325444;37,51208547;2,00999999;
19:49:19:993;-0,0036;-0,1351;-0,0209;56,35325444;37,51208547;2,00999999;
19:49:19:996;-0,0036;-0,1351;-0,0209;56,35325444;37,51208547;2,00999999;
19:49:19:998;-0,0036;-0,1351;-0,0209;56,35325444;37,51208547;2,00999999;
19:49:19:999;-0,0036;-0,1351;-0,0209;56,35325444;37,51208547;2,00999999;
19:49:20:045;-0,0036;-0,1351;-0,0209;56,35325444;37,51208547;2,00999999;
19:49:20:047;-0,0367;-0,0818;0,0218;56,35325444;37,51208547;2,00999999;
19:49:20:062;-0,0367;-0,0818;0,0218;56,35325444;37,51208547;2,00999999;
19:49:20:065;-0,0367;-0,0818;0,0218;56,35325444;37,51208547;2,00999999;
19:49:20:067;-0,0367;-0,0818;0,0218;56,35325444;37,51208547;2,00999999;
19:49:20:105;-0,0367;-0,0818;0,0218;56,35325444;37,51208547;2,00999999;
19:49:20:107;0,0363;-0,0589;-0,0055;56,35325444;37,51208547;2,00999999;
19:49:20:146;0,0363;-0,0589;-0,0055;56,35325444;37,51208547;2,00999999;
19:49:20:148;0,0329;-0,0528;-0,0049;56,35325444;37,51208547;2,00999999;
19:49:20:151;0,0329;-0,0528;-0,0049;56,35325444;37,51208547;2,00999999;
19:49:20:153;0,0329;-0,0528;-0,0049;56,35325444;37,51208547;2,00999999;
19:49:20:155;0,0329;-0,0528;-0,0049;56,35325444;37,51208547;2,00999999;
19:49:20:156;0,0329;-0,0528;-0,0049;56,35325444;37,51208547;2,00999999;
19:49:20:158;0,0329;-0,0528;-0,0049;56,35325444;37,51208547;2,00999999;
19:49:20:204;0,0329;-0,0528;-0,0049;56,35325444;37,51208547;2,00999999;
19:49:20:206;0,0418;-0,0635;-0,0100;56,35325444;37,51208547;2,00999999;
19:49:20:234;0,0418;-0,0635;-0,0100;56,35325444;37,51208547;2,00999999;
19:49:20:236;0,0418;-0,0635;-0,0100;56,35325444;37,51208547;2,00999999;
19:49:20:238;0,0418;-0,0635;-0,0100;56,35325444;37,51208547;2,00999999;
19:49:20:239;0,0418;-0,0635;-0,0100;56,35325444;37,51208547;2,00999999;
19:49:20:285;0,0418;-0,0635;-0,0100;56,35325444;37,51208547;2,00999999;
19:49:20:288;-0,0312;-0,0414;-0,0590;56,35325444;37,51208547;2,00999999;
19:49:20:345;-0,0312;-0,0414;-0,0590;56,35325444;37,51208547;2,00999999;
19:49:20:348;-0,0312;-0,0414;-0,0590;56,35324964;37,51211566;1,87000000;
19:49:20:351;-0,0312;-0,0414;-0,0590;56,35324964;37,51211566;1,87000000;
19:49:20:352;-0,0312;-0,0414;-0,0590;56,35324964;37,51211566;1,87000000;
19:49:20:353;-0,0312;-0,0414;-0,0590;56,35324964;37,51211566;1,87000000;
19:49:20:354;-0,0312;-0,0414;-0,0590;56,35324964;37,51211566;1,87000000;
19:49:20:355;-0,0312;-0,0414;-0,0590;56,35324964;37,51211566;1,87000000;
19:49:20:356;-0,0687;-0,0447;0,0721;56,35324964;37,51211566;1,87000000;
19:49:20:407;-0,0687;-0,0447;0,0721;56,35324964;37,51211566;1,87000000;
19:49:20:410;-0,0641;-0,0603;0,0585;56,35324964;37,51211566;1,87000000;
19:49:20:434;-0,0641;-0,0603;0,0585;56,35324964;37,51211566;1,87000000;
19:49:20:437;-0,0641;-0,0603;0,0585;56,35324964;37,51211566;1,87000000;
