
time;ax;ay;az;Latitude;Longitude;Speed (m/s);
14:11:18:029;0,0000;0,0000;0,0000;0,00000000;0,00000000;0,00000000;
14:11:18:030;0,0000;0,0000;0,0000;56,37234297;37,53044039;0,00000000;
14:11:18:030;0,0000;0,0000;0,0000;56,37234297;37,53044039;0,00000000;
14:11:18:094;0,0000;0,0000;0,0000;56,37234297;37,53044039;0,00000000;
14:11:18:094;0,0000;0,0000;0,0000;56,37234297;37,53044039;0,00000000;
14:11:18:095;0,0000;0,0000;-0,0000;56,37234297;37,53044039;0,00000000;
14:11:18:131;0,0000;0,0000;-0,0000;56,37234297;37,53044039;0,00000000;
14:11:18:132;0,0000;0,0000;-0,0000;56,37234297;37,53044039;0,00000000;
14:11:18:151;0,0000;0,0000;-0,0000;56,37234297;37,53044039;0,00000000;
14:11:18:152;0,0000;0,0000;-0,0000;56,37234297;37,53044039;0,00000000;
14:11:18:242;0,0000;0,0000;-0,0000;56,37234297;37,53044039;0,00000000;
14:11:18:243;0,0000;0,0000;-0,0000;56,37234297;37,53044039;0,00000000;
14:11:18:244;0,0000;0,0000;-0,0000;56,37234297;37,53044039;0,00000000;
14:11:18:301;0,0000;0,0000;-0,0000;56,37234297;37,53044039;0,00000000;
14:11:18:302;0,4832;0,2405;-0,0597;56,37234297;37,53044039;0,00000000;
14:11:18:304;0,4832;0,2405;-0,0597;56,37234297;37,53044039;0,00000000;
14:11:18:362;0,4832;0,2405;-0,0597;56,37234297;37,53044039;0,00000000;
14:11:18:364;0,4832;0,2405;-0,0597;56,37234297;37,53044039;0,00000000;
14:11:18:365;0,5161;0,1430;0,2215;56,37234297;37,53044039;0,00000000;
14:11:18:442;0,5161;0,1430;0,2215;56,37234297;37,53044039;0,00000000;
14:11:18:444;0,5161;0,1430;0,2215;56,37234297;37,53044039;0,00000000;
14:11:18:446;-0,1673;-0,0092;0,0108;56,37234297;37,53044039;0,00000000;
14:11:18:504;-0,1673;-0,0092;0,0108;56,37234297;37,53044039;0,00000000;
14:11:18:506;-0,1673;-0,0092;0,0108;56,37234297;37,53044039;0,00000000;
14:11:18:509;0,0333;-0,1443;0,0059;56,37234297;37,53044039;0,00000000;
14:11:18:564;-0,1866;-0,1803;-0,2602;56,37234297;37,53044039;0,00000000;
14:11:18:566;-0,1866;-0,1803;-0,2602;56,37234297;37,53044039;0,00000000;
14:11:18:568;-0,1866;-0,1803;-0,2602;56,37234297;37,53044039;0,00000000;
14:11:18:627;0,3207;-0,1935;-0,8037;56,37234297;37,53044039;0,00000000;
14:11:18:630;0,3207;-0,1935;-0,8037;56,37234297;37,53044039;0,00000000;
14:11:18:632;0,3207;-0,1935;-0,8037;56,37234297;37,53044039;0,00000000;
14:11:18:648;0,3207;-0,1935;-0,8037;56,37234297;37,53044039;0,00000000;
14:11:18:651;0,2404;0,2141;-1,0515;56,37234297;37,53044039;0,00000000;
14:11:18:703;0,2404;0,2141;-1,0515;56,37234297;37,53044039;0,00000000;
14:11:18:704;0,2404;0,2141;-1,0515;56,37234297;37,53044039;0,00000000;
14:11:18:705;-0,7627;0,3026;-2,0142;56,37234297;37,53044039;0,00000000;
14:11:18:764;-0,7627;0,3026;-2,0142;56,37234297;37,53044039;0,00000000;
14:11:18:767;-0,7627;0,3026;-2,0142;56,37234297;37,53044039;0,00000000;
14:11:18:771;-0,5968;0,3650;-0,3699;56,37234297;37,53044039;0,00000000;
14:11:18:825;-0,5968;0,3650;-0,3699;56,37234297;37,53044039;0,00000000;
14:11:18:826;-0,5968;0,3650;-0,3699;56,37234297;37,53044039;0,00000000;
14:11:18:828;0,2138;0,7510;1,6763;56,37234297;37,53044039;0,00000000;
14:11:18:885;0,2138;0,7510;1,6763;56,37234297;37,53044039;0,00000000;
14:11:18:887;0,2138;0,7510;1,6763;56,37234297;37,53044039;0,00000000;
14:11:18:890;-0,8526;-0,7032;-0,1742;56,37234297;37,53044039;0,00000000;
14:11:18:910;-0,8526;-0,7032;-0,1742;56,37234297;37,53044039;0,00000000;
14:11:18:965;-0,8526;-0,7032;-0,1742;56,37234297;37,53044039;0,00000000;
14:11:18:967;-0,8526;-0,7032;-0,1742;56,37234297;37,53044039;0,00000000;
14:11:18:968;1,7178;0,1347;0,3845;56,37234297;37,53044039;0,00000000;
14:11:19:029;1,7178;0,1347;0,3845;56,37234297;37,53044039;0,00000000;
14:11:19:031;1,7178;0,1347;0,3845;56,37234297;37,53044039;0,00000000;
14:11:19:033;0,8433;-0,5179;0,7313;56,37234297;37,53044039;0,00000000;
14:11:19:085;0,8433;-0,5179;0,7313;56,37234297;37,53044039;0,00000000;
14:11:19:087;0,8433;-0,5179;0,7313;56,37234297;37,53044039;0,00000000;
14:11:19:088;0,2608;-0,6621;1,6145;56,37234297;37,53044039;0,00000000;
14:11:19:150;0,2608;-0,6621;1,6145;56,37234297;37,53044039;0,00000000;
14:11:19:152;0,2608;-0,6621;1,6145;56,37234297;37,53044039;0,00000000;
14:11:19:160;-0,3735;0,2539;1,3073;56,37234297;37,53044039;0,00000000;
14:11:19:227;-0,3735;0,2539;1,3073;56,37234297;37,53044039;0,00000000;
14:11:19:228;-0,3735;0,2539;1,3073;56,37234297;37,53044039;0,00000000;
14:11:19:229;-0,2339;-0,1915;-0,2153;56,37234297;37,53044039;0,00000000;
14:11:19:287;-0,2339;-0,1915;-0,2153;56,37234297;37,53044039;0,00000000;
14:11:19:289;-0,2339;-0,1915;-0,2153;56,37234297;37,53044039;0,00000000;
14:11:19:291;-0,3400;-0,1679;-0,2211;56,37234297;37,53044039;0,00000000;
14:11:19:350;-0,3400;-0,1679;-0,2211;56,37234297;37,53044039;0,00000000;
14:11:19:353;-0,3400;-0,1679;-0,2211;56,37234297;37,53044039;0,00000000;
14:11:19:356;0,2667;0,0280;0,0768;56,37234297;37,53044039;0,00000000;
14:11:19:409;0,2667;0,0280;0,0768;56,37234297;37,53044039;0,00000000;
14:11:19:412;0,2667;0,0280;0,0768;56,37234297;37,53044039;0,00000000;
14:11:19:414;0,3383;-0,1736;0,2843;56,37234297;37,53044039;0,00000000;
14:11:19:432;0,3383;-0,1736;0,2843;56,37234297;37,53044039;0,00000000;
14:11:19:434;0,3497;-0,0802;0,2200;56,37234297;37,53044039;0,00000000;
14:11:19:489;0,3497;-0,0802;0,2200;56,37234297;37,53044039;0,00000000;
14:11:19:490;0,3497;-0,0802;0,2200;56,37234297;37,53044039;0,00000000;
14:11:19:495;-0,1538;0,0204;0,3329;56,37234297;37,53044039;0,00000000;
14:11:19:550;-0,1538;0,0204;0,3329;56,37234297;37,53044039;0,00000000;
14:11:19:552;-0,1538;0,0204;0,3329;56,37234297;37,53044039;0,00000000;
14:11:19:554;0,4853;-0,2413;0,3062;56,37234297;37,53044039;0,00000000;
14:11:19:610;0,4853;-0,2413;0,3062;56,37234297;37,53044039;0,00000000;
14:11:19:612;0,4853;-0,2413;0,3062;56,37234297;37,53044039;0,00000000;
14:11:19:614;-0,5712;-0,5371;0,3029;56,37234297;37,53044039;0,00000000;
14:11:19:670;0,0095;-0,0911;0,0520;56,37234297;37,53044039;0,00000000;
14:11:19:673;0,0095;-0,0911;0,0520;56,37234297;37,53044039;0,00000000;
14:11:19:674;0,0095;-0,0911;0,0520;56,37234297;37,53044039;0,00000000;
14:11:19:697;0,0095;-0,0911;0,0520;56,37234297;37,53044039;0,00000000;
14:11:19:751;-0,1753;-0,3258;0,0701;56,37234297;37,53044039;0,00000000;
14:11:19:754;-0,1753;-0,3258;0,0701;56,37234297;37,53044039;0,00000000;
14:11:19:756;-0,1753;-0,3258;0,0701;56,37234297;37,53044039;0,00000000;
14:11:19:810;-0,1753;-0,3258;0,0701;56,37234297;37,53044039;0,00000000;
14:11:19:811;-0,1753;-0,3258;0,0701;56,37234297;37,53044039;0,00000000;
14:11:19:813;0,1641;-0,0389;0,0609;56,37234297;37,53044039;0,00000000;
14:11:19:871;0,1641;-0,0389;0,0609;56,37234297;37,53044039;0,00000000;
14:11:19:872;0,1641;-0,0389;0,0609;56,37234297;37,53044039;0,00000000;
14:11:19:873;0,8366;0,2905;0,6239;56,37234297;37,53044039;0,00000000;
14:11:19:939;0,8366;0,2905;0,6239;56,37234297;37,53044039;0,00000000;
14:11:19:940;0,8366;0,2905;0,6239;56,37234297;37,53044039;0,00000000;
14:11:19:942;-0,0393;0,5452;0,5277;56,37234297;37,53044039;0,00000000;
14:11:20:011;-0,0393;0,5452;0,5277;56,37234297;37,53044039;0,00000000;
14:11:20:012;-0,0393;0,5452;0,5277;56,37234297;37,53044039;0,00000000;
14:11:20:014;-0,4692;-0,3061;0,4231;56,37234297;37,53044039;0,00000000;
14:11:20:072;-0,4692;-0,3061;0,4231;56,37234297;37,53044039;0,00000000;
14:11:20:073;-0,4692;-0,3061;0,4231;56,37234297;37,53044039;0,00000000;
14:11:20:075;0,1624;-0,4890;-0,8371;56,37234297;37,53044039;0,00000000;
14:11:20:133;0,1624;-0,4890;-0,8371;56,37234297;37,53044039;0,00000000;
14:11:20:134;0,1624;-0,4890;-0,8371;56,37234297;37,53044039;0,00000000;
14:11:20:136;-0,8877;-0,5964;-0,7521;56,37234297;37,53044039;0,00000000;
14:11:20:193;-0,8877;-0,5964;-0,7521;56,37234297;37,53044039;0,00000000;
14:11:20:195;-0,8877;-0,5964;-0,7521;56,37234297;37,53044039;0,00000000;
14:11:20:198;-0,8984;-0,9140;0,5031;56,37234297;37,53044039;0,00000000;
14:11:20:223;-0,8984;-0,9140;0,5031;56,37234297;37,53044039;0,00000000;
14:11:20:225;-0,4767;-0,9235;0,8472;56,37234297;37,53044039;0,00000000;
14:11:20:272;-0,4767;-0,9235;0,8472;56,37234297;37,53044039;0,00000000;
14:11:20:273;-0,4767;-0,9235;0,8472;56,37234297;37,53044039;0,00000000;
14:11:20:275;0,3433;-0,0196;1,6254;56,37234297;37,53044039;0,00000000;
14:11:20:333;-0,7771;-0,5853;-0,4498;56,37234297;37,53044039;0,00000000;
14:11:20:336;-0,7771;-0,5853;-0,4498;56,37234297;37,53044039;0,00000000;
14:11:20:337;-0,7771;-0,5853;-0,4498;56,37234297;37,53044039;0,00000000;
14:11:20:394;-0,7771;-0,5853;-0,4498;56,37234297;37,53044039;0,00000000;
14:11:20:395;-0,7771;-0,5853;-0,4498;56,37234297;37,53044039;0,00000000;
14:11:20:397;1,0001;0,2480;0,2509;56,37234297;37,53044039;0,00000000;
14:11:20:453;1,0001;0,2480;0,2509;56,37234297;37,53044039;0,00000000;
14:11:20:454;1,0001;0,2480;0,2509;56,37234297;37,53044039;0,00000000;
14:11:20:455;0,2376;-0,0186;-0,1060;56,37234297;37,53044039;0,00000000;
14:11:20:479;0,2376;-0,0186;-0,1060;56,37234297;37,53044039;0,00000000;
14:11:20:535;0,7862;0,0675;-0,3149;56,37234297;37,53044039;0,00000000;
14:11:20:538;0,7862;0,0675;-0,3149;56,37234297;37,53044039;0,00000000;
14:11:20:540;0,7862;0,0675;-0,3149;56,37234297;37,53044039;0,00000000;
14:11:20:595;0,7862;0,0675;-0,3149;56,37234297;37,53044039;0,00000000;
14:11:20:600;0,7862;0,0675;-0,3149;56,37234297;37,53044039;0,00000000;
14:11:20:602;0,2525;0,0646;1,5815;56,37234297;37,53044039;0,00000000;
14:11:20:657;0,2525;0,0646;1,5815;56,37234297;37,53044039;0,00000000;
14:11:20:658;0,2525;0,0646;1,5815;56,37234297;37,53044039;0,00000000;
14:11:20:661;-1,7966;-0,8041;-1,8231;56,37234297;37,53044039;0,00000000;
14:11:20:717;-1,7966;-0,8041;-1,8231;56,37234297;37,53044039;0,00000000;
14:11:20:720;-1,7966;-0,8041;-1,8231;56,37234297;37,53044039;0,00000000;
14:11:20:722;-0,0775;-0,5798;-0,6078;56,37234297;37,53044039;0,00000000;
14:11:20:797;-0,0775;-0,5798;-0,6078;56,37234297;37,53044039;0,00000000;
14:11:20:799;-0,0775;-0,5798;-0,6078;56,37234297;37,53044039;0,00000000;
14:11:20:801;0,6130;-0,2327;-0,0363;56,37234297;37,53044039;0,00000000;
14:11:20:856;0,6130;-0,2327;-0,0363;56,37234297;37,53044039;0,00000000;
14:11:20:859;0,6130;-0,2327;-0,0363;56,37234297;37,53044039;0,00000000;
14:11:20:861;0,3693;-0,0324;0,9144;56,37234297;37,53044039;0,00000000;
14:11:20:923;0,3693;-0,0324;0,9144;56,37234297;37,53044039;0,00000000;
14:11:20:925;0,3693;-0,0324;0,9144;56,37234297;37,53044039;0,00000000;
14:11:20:931;0,2663;0,1486;0,8395;56,37234297;37,53044039;0,00000000;
14:11:20:976;0,2663;0,1486;0,8395;56,37234297;37,53044039;0,00000000;
14:11:20:977;0,2663;0,1486;0,8395;56,35397931;37,50892145;10,90999985;
14:11:20:978;1,0502;0,2746;0,8104;56,35397931;37,50892145;10,90999985;
14:11:21:002;1,0502;0,2746;0,8104;56,35397931;37,50892145;10,90999985;
14:11:21:003;0,9698;0,2737;0,7768;56,35397931;37,50892145;10,90999985;
14:11:21:056;0,9698;0,2737;0,7768;56,35397931;37,50892145;10,90999985;
14:11:21:057;0,9698;0,2737;0,7768;56,35397931;37,50892145;10,90999985;
14:11:21:058;-0,0054;0,2608;-0,4577;56,35397931;37,50892145;10,90999985;
14:11:21:121;0,1387;0,0185;0,6224;56,35397931;37,50892145;10,90999985;
14:11:21:123;0,1387;0,0185;0,6224;56,35397931;37,50892145;10,90999985;
14:11:21:126;0,1387;0,0185;0,6224;56,35397931;37,50892145;10,90999985;
14:11:21:178;0,1387;0,0185;0,6224;56,35397931;37,50892145;10,90999985;
14:11:21:181;-0,0678;0,0034;0,7709;56,35397931;37,50892145;10,90999985;
14:11:21:185;-0,0678;0,0034;0,7709;56,35397931;37,50892145;10,90999985;
14:11:21:238;-0,0678;0,0034;0,7709;56,35397931;37,50892145;10,90999985;
14:11:21:241;-0,0678;0,0034;0,7709;56,35397931;37,50892145;10,90999985;
14:11:21:243;-0,5546;-0,3653;-0,7759;56,35397931;37,50892145;10,90999985;
14:11:21:265;-0,5546;-0,3653;-0,7759;56,35397931;37,50892145;10,90999985;
14:11:21:320;-0,5546;-0,3653;-0,7759;56,35397931;37,50892145;10,90999985;
14:11:21:322;-0,5546;-0,3653;-0,7759;56,35397931;37,50892145;10,90999985;
14:11:21:325;-0,1579;0,0480;-0,3144;56,35397931;37,50892145;10,90999985;
14:11:21:379;-0,1579;0,0480;-0,3144;56,35397931;37,50892145;10,90999985;
14:11:21:383;-0,0420;0,1824;0,7176;56,35397931;37,50892145;10,90999985;
14:11:21:385;-0,0420;0,1824;0,7176;56,35397931;37,50892145;10,90999985;
14:11:21:439;-0,0420;0,1824;0,7176;56,35397931;37,50892145;10,90999985;
14:11:21:442;-0,0420;0,1824;0,7176;56,35397931;37,50892145;10,90999985;
14:11:21:445;0,4180;0,0009;-0,2009;56,35397931;37,50892145;10,90999985;
14:11:21:502;0,3274;0,2456;0,0334;56,35397931;37,50892145;10,90999985;
14:11:21:505;0,3274;0,2456;0,0334;56,35397931;37,50892145;10,90999985;
14:11:21:507;0,3274;0,2456;0,0334;56,35397931;37,50892145;10,90999985;
14:11:21:580;0,3274;0,2456;0,0334;56,35397931;37,50892145;10,90999985;
14:11:21:583;0,3274;0,2456;0,0334;56,35397931;37,50892145;10,90999985;
14:11:21:584;-0,0808;0,3017;0,0746;56,35397931;37,50892145;10,90999985;
14:11:21:640;-0,0808;0,3017;0,0746;56,35397931;37,50892145;10,90999985;
14:11:21:642;-0,0808;0,3017;0,0746;56,35397931;37,50892145;10,90999985;
14:11:21:644;-0,5542;0,0842;-0,0690;56,35397931;37,50892145;10,90999985;
14:11:21:702;-0,5542;0,0842;-0,0690;56,35397931;37,50892145;10,90999985;
14:11:21:704;-0,5542;0,0842;-0,0690;56,35397931;37,50892145;10,90999985;
14:11:21:706;-0,2547;-0,0758;0,0640;56,35397931;37,50892145;10,90999985;
14:11:21:763;-0,2547;-0,0758;0,0640;56,35397931;37,50892145;10,90999985;
14:11:21:766;-0,2547;-0,0758;0,0640;56,35397931;37,50892145;10,90999985;
14:11:21:769;-0,0892;0,1034;-0,1156;56,35397931;37,50892145;10,90999985;
14:11:21:789;-0,1321;0,0879;-0,1126;56,35397931;37,50892145;10,90999985;
14:11:21:792;-0,1321;0,0879;-0,1126;56,35397931;37,50892145;10,90999985;
14:11:21:841;-0,1321;0,0879;-0,1126;56,35397931;37,50892145;10,90999985;
14:11:21:844;-0,1321;0,0879;-0,1126;56,35397931;37,50892145;10,90999985;
14:11:21:846;0,5028;0,2748;0,3628;56,35397931;37,50892145;10,90999985;
14:11:21:902;0,5028;0,2748;0,3628;56,35397931;37,50892145;10,90999985;
14:11:21:904;0,5028;0,2748;0,3628;56,35397931;37,50892145;10,90999985;
14:11:21:905;-0,2333;0,2373;0,3324;56,35397931;37,50892145;10,90999985;
14:11:21:961;-0,2333;0,2373;0,3324;56,35397931;37,50892145;10,90999985;
14:11:21:962;-0,2333;0,2373;0,3324;56,35394036;37,50902179;10,05000019;
14:11:21:965;-0,2121;0,1761;0,5155;56,35394036;37,50902179;10,05000019;
14:11:22:022;-0,2121;0,1761;0,5155;56,35394036;37,50902179;10,05000019;
14:11:22:024;-0,2121;0,1761;0,5155;56,35394036;37,50902179;10,05000019;
14:11:22:025;-0,0597;-0,0020;0,0864;56,35394036;37,50902179;10,05000019;
14:11:22:049;-0,0597;-0,0020;0,0864;56,35394036;37,50902179;10,05000019;
14:11:22:102;-0,0597;-0,0020;0,0864;56,35394036;37,50902179;10,05000019;
14:11:22:104;-0,0597;-0,0020;0,0864;56,35394036;37,50902179;10,05000019;
14:11:22:106;0,5852;0,2582;0,3103;56,35394036;37,50902179;10,05000019;
14:11:22:162;0,5852;0,2582;0,3103;56,35394036;37,50902179;10,05000019;
14:11:22:164;0,5852;0,2582;0,3103;56,35394036;37,50902179;10,05000019;
14:11:22:165;0,6801;0,2357;0,4627;56,35394036;37,50902179;10,05000019;
14:11:22:231;0,6801;0,2357;0,4627;56,35394036;37,50902179;10,05000019;
14:11:22:234;0,6801;0,2357;0,4627;56,35394036;37,50902179;10,05000019;
14:11:22:236;0,2845;0,0531;0,4414;56,35394036;37,50902179;10,05000019;
14:11:22:283;0,2845;0,0531;0,4414;56,35394036;37,50902179;10,05000019;
14:11:22:284;0,2845;0,0531;0,4414;56,35394036;37,50902179;10,05000019;
14:11:22:285;0,0346;-0,0023;0,0269;56,35394036;37,50902179;10,05000019;
14:11:22:364;0,0346;-0,0023;0,0269;56,35394036;37,50902179;10,05000019;
14:11:22:366;0,0346;-0,0023;0,0269;56,35394036;37,50902179;10,05000019;
14:11:22:367;0,3892;-0,1604;0,0099;56,35394036;37,50902179;10,05000019;
14:11:22:424;0,3892;-0,1604;0,0099;56,35394036;37,50902179;10,05000019;
14:11:22:425;0,3892;-0,1604;0,0099;56,35394036;37,50902179;10,05000019;
14:11:22:426;0,6219;-0,1694;-0,2201;56,35394036;37,50902179;10,05000019;
14:11:22:484;0,6219;-0,1694;-0,2201;56,35394036;37,50902179;10,05000019;
14:11:22:486;0,6219;-0,1694;-0,2201;56,35394036;37,50902179;10,05000019;
14:11:22:487;1,4004;-0,0326;0,4625;56,35394036;37,50902179;10,05000019;
14:11:22:545;1,4004;-0,0326;0,4625;56,35394036;37,50902179;10,05000019;
14:11:22:546;1,4004;-0,0326;0,4625;56,35394036;37,50902179;10,05000019;
14:11:22:547;1,4087;0,0679;0,9942;56,35394036;37,50902179;10,05000019;
14:11:22:573;1,3352;0,0384;0,9890;56,35394036;37,50902179;10,05000019;
14:11:22:576;1,3352;0,0384;0,9890;56,35394036;37,50902179;10,05000019;
14:11:22:626;1,3352;0,0384;0,9890;56,35394036;37,50902179;10,05000019;
14:11:22:628;1,3352;0,0384;0,9890;56,35394036;37,50902179;10,05000019;
14:11:22:630;0,7668;-0,1782;0,5970;56,35394036;37,50902179;10,05000019;
14:11:22:686;1,0173;-0,4268;0,4007;56,35394036;37,50902179;10,05000019;
14:11:22:690;1,0173;-0,4268;0,4007;56,35394036;37,50902179;10,05000019;
14:11:22:692;1,0173;-0,4268;0,4007;56,35394036;37,50902179;10,05000019;
14:11:22:748;1,0173;-0,4268;0,4007;56,35394036;37,50902179;10,05000019;
14:11:22:752;1,0173;-0,4268;0,4007;56,35394036;37,50902179;10,05000019;
14:11:22:754;0,1198;0,0620;-0,0076;56,35394036;37,50902179;10,05000019;
14:11:22:807;0,1198;0,0620;-0,0076;56,35394036;37,50902179;10,05000019;
14:11:22:810;0,1198;0,0620;-0,0076;56,35394036;37,50902179;10,05000019;
14:11:22:811;2,6099;-0,9148;1,2556;56,35394036;37,50902179;10,05000019;
14:11:22:835;2,6099;-0,9148;1,2556;56,35394036;37,50902179;10,05000019;
14:11:22:887;2,6099;-0,9148;1,2556;56,35394036;37,50902179;10,05000019;
14:11:22:890;2,6099;-0,9148;1,2556;56,35394036;37,50902179;10,05000019;
14:11:22:894;0,6152;0,7047;-0,8678;56,35394036;37,50902179;10,05000019;
14:11:22:947;0,6152;0,7047;-0,8678;56,35394036;37,50902179;10,05000019;
14:11:22:949;0,6152;0,7047;-0,8678;56,35390911;37,50915712;9,82999992;
14:11:22:951;-0,3893;-1,1112;-0,2608;56,35390911;37,50915712;9,82999992;
14:11:23:006;-0,3893;-1,1112;-0,2608;56,35390911;37,50915712;9,82999992;
14:11:23:008;-0,3893;-1,1112;-0,2608;56,35390911;37,50915712;9,82999992;
14:11:23:009;-1,7115;-0,8540;3,8394;56,35390911;37,50915712;9,82999992;
14:11:23:068;-1,7115;-0,8540;3,8394;56,35390911;37,50915712;9,82999992;
14:11:23:071;-1,7115;-0,8540;3,8394;56,35390911;37,50915712;9,82999992;
14:11:23:072;4,8486;-0,5151;0,5170;56,35390911;37,50915712;9,82999992;
14:11:23:148;4,8486;-0,5151;0,5170;56,35390911;37,50915712;9,82999992;
14:11:23:150;4,8486;-0,5151;0,5170;56,35390911;37,50915712;9,82999992;
14:11:23:151;-0,6549;0,1943;-3,9170;56,35390911;37,50915712;9,82999992;
14:11:23:208;-0,6549;0,1943;-3,9170;56,35390911;37,50915712;9,82999992;
14:11:23:211;-0,6549;0,1943;-3,9170;56,35390911;37,50915712;9,82999992;
14:11:23:213;1,6726;0,0753;1,4937;56,35390911;37,50915712;9,82999992;
14:11:23:271;1,6726;0,0753;1,4937;56,35390911;37,50915712;9,82999992;
14:11:23:273;1,6726;0,0753;1,4937;56,35390911;37,50915712;9,82999992;
14:11:23:275;0,5182;-0,3483;2,1975;56,35390911;37,50915712;9,82999992;
14:11:23:329;0,5182;-0,3483;2,1975;56,35390911;37,50915712;9,82999992;
14:11:23:333;0,5182;-0,3483;2,1975;56,35390911;37,50915712;9,82999992;
14:11:23:335;1,1400;0,6441;-0,6251;56,35390911;37,50915712;9,82999992;
14:11:23:358;1,2453;0,8866;-0,7216;56,35390911;37,50915712;9,82999992;
14:11:23:365;1,2453;0,8866;-0,7216;56,35390911;37,50915712;9,82999992;
14:11:23:410;1,2453;0,8866;-0,7216;56,35390911;37,50915712;9,82999992;
14:11:23:413;1,2453;0,8866;-0,7216;56,35390911;37,50915712;9,82999992;
14:11:23:414;3,0108;0,0134;-1,9334;56,35390911;37,50915712;9,82999992;
14:11:23:471;3,0108;0,0134;-1,9334;56,35390911;37,50915712;9,82999992;
14:11:23:473;3,0108;0,0134;-1,9334;56,35390911;37,50915712;9,82999992;
14:11:23:475;-0,3718;0,1361;-2,1594;56,35390911;37,50915712;9,82999992;
14:11:23:531;-0,3718;0,1361;-2,1594;56,35390911;37,50915712;9,82999992;
14:11:23:535;-0,3718;0,1361;-2,1594;56,35390911;37,50915712;9,82999992;
14:11:23:538;0,8272;-0,2473;-1,1278;56,35390911;37,50915712;9,82999992;
14:11:23:591;0,8272;-0,2473;-1,1278;56,35390911;37,50915712;9,82999992;
14:11:23:594;0,8272;-0,2473;-1,1278;56,35390911;37,50915712;9,82999992;
14:11:23:596;2,2255;-0,4911;0,6315;56,35390911;37,50915712;9,82999992;
14:11:23:620;2,2255;-0,4911;0,6315;56,35390911;37,50915712;9,82999992;
14:11:23:672;2,2255;-0,4911;0,6315;56,35390911;37,50915712;9,82999992;
14:11:23:675;2,2255;-0,4911;0,6315;56,35390911;37,50915712;9,82999992;
14:11:23:677;0,3124;-0,2096;-0,8976;56,35390911;37,50915712;9,82999992;
14:11:23:732;0,3124;-0,2096;-0,8976;56,35390911;37,50915712;9,82999992;
14:11:23:735;0,3124;-0,2096;-0,8976;56,35390911;37,50915712;9,82999992;
14:11:23:736;-2,3776;0,0829;-1,5654;56,35390911;37,50915712;9,82999992;
14:11:23:792;-2,3776;0,0829;-1,5654;56,35390911;37,50915712;9,82999992;
14:11:23:794;-2,3776;0,0829;-1,5654;56,35390911;37,50915712;9,82999992;
14:11:23:798;-4,0930;0,0736;-0,7207;56,35390911;37,50915712;9,82999992;
14:11:23:851;-4,0930;0,0736;-0,7207;56,35390911;37,50915712;9,82999992;
14:11:23:854;-4,0930;0,0736;-0,7207;56,35390911;37,50915712;9,82999992;
14:11:23:856;-3,6828;1,0661;-0,4212;56,35390911;37,50915712;9,82999992;
14:11:23:932;-3,6828;1,0661;-0,4212;56,35390911;37,50915712;9,82999992;
14:11:23:935;-3,6828;1,0661;-0,4212;56,35390911;37,50915712;9,82999992;
14:11:23:937;0,1082;0,3533;-1,0509;56,35390911;37,50915712;9,82999992;
14:11:23:992;0,1082;0,3533;-1,0509;56,35390911;37,50915712;9,82999992;
14:11:23:993;0,1082;0,3533;-1,0509;56,35387820;37,50928029;9,46000004;
14:11:23:995;0,5755;0,6978;-1,0004;56,35387820;37,50928029;9,46000004;
14:11:24:053;0,5755;0,6978;-1,0004;56,35387820;37,50928029;9,46000004;
14:11:24:056;0,5755;0,6978;-1,0004;56,35387820;37,50928029;9,46000004;
14:11:24:058;1,7264;1,0408;-0,1341;56,35387820;37,50928029;9,46000004;
14:11:24:114;1,7264;1,0408;-0,1341;56,35387820;37,50928029;9,46000004;
14:11:24:117;1,7264;1,0408;-0,1341;56,35387820;37,50928029;9,46000004;
14:11:24:119;1,9324;0,9796;0,2088;56,35387820;37,50928029;9,46000004;
14:11:24:143;1,9324;0,9796;0,2088;56,35387820;37,50928029;9,46000004;
14:11:24:145;1,8468;0,9708;0,1939;56,35387820;37,50928029;9,46000004;
14:11:24:194;1,8468;0,9708;0,1939;56,35387820;37,50928029;9,46000004;
14:11:24:196;1,8468;0,9708;0,1939;56,35387820;37,50928029;9,46000004;
14:11:24:199;-0,0598;-0,5911;0,6602;56,35387820;37,50928029;9,46000004;
14:11:24:255;-0,0598;-0,5911;0,6602;56,35387820;37,50928029;9,46000004;
14:11:24:257;-0,0598;-0,5911;0,6602;56,35387820;37,50928029;9,46000004;
14:11:24:259;-0,0385;0,2998;1,4337;56,35387820;37,50928029;9,46000004;
14:11:24:315;-0,0385;0,2998;1,4337;56,35387820;37,50928029;9,46000004;
14:11:24:317;-0,0385;0,2998;1,4337;56,35387820;37,50928029;9,46000004;
14:11:24:319;-1,3380;-0,7661;1,1168;56,35387820;37,50928029;9,46000004;
14:11:24:375;-1,3380;-0,7661;1,1168;56,35387820;37,50928029;9,46000004;
14:11:24:377;-1,3380;-0,7661;1,1168;56,35387820;37,50928029;9,46000004;
14:11:24:379;-0,6453;0,0991;1,3714;56,35387820;37,50928029;9,46000004;
14:11:24:405;-0,6453;0,0991;1,3714;56,35387820;37,50928029;9,46000004;
14:11:24:455;-0,6453;0,0991;1,3714;56,35387820;37,50928029;9,46000004;
14:11:24:457;-0,6453;0,0991;1,3714;56,35387820;37,50928029;9,46000004;
14:11:24:459;-0,1575;-0,2389;1,5614;56,35387820;37,50928029;9,46000004;
14:11:24:516;-0,1575;-0,2389;1,5614;56,35387820;37,50928029;9,46000004;
14:11:24:519;-0,1575;-0,2389;1,5614;56,35387820;37,50928029;9,46000004;
14:11:24:521;-0,0593;-0,4874;0,6595;56,35387820;37,50928029;9,46000004;
14:11:24:576;-0,0593;-0,4874;0,6595;56,35387820;37,50928029;9,46000004;
14:11:24:580;-0,0593;-0,4874;0,6595;56,35387820;37,50928029;9,46000004;
14:11:24:582;-0,9921;-0,4088;0,2634;56,35387820;37,50928029;9,46000004;
14:11:24:636;-0,9921;-0,4088;0,2634;56,35387820;37,50928029;9,46000004;
14:11:24:639;-0,9921;-0,4088;0,2634;56,35387820;37,50928029;9,46000004;
14:11:24:641;-1,2454;-0,3014;-0,5059;56,35387820;37,50928029;9,46000004;
14:11:24:717;-1,2454;-0,3014;-0,5059;56,35387820;37,50928029;9,46000004;
14:11:24:719;-1,2454;-0,3014;-0,5059;56,35387820;37,50928029;9,46000004;
14:11:24:721;0,6434;0,4082;1,1210;56,35387820;37,50928029;9,46000004;
14:11:24:777;0,6434;0,4082;1,1210;56,35387820;37,50928029;9,46000004;
14:11:24:780;0,6434;0,4082;1,1210;56,35387820;37,50928029;9,46000004;
14:11:24:782;-0,4441;-0,1466;1,5125;56,35387820;37,50928029;9,46000004;
14:11:24:836;-0,4441;-0,1466;1,5125;56,35387820;37,50928029;9,46000004;
14:11:24:837;-0,4441;-0,1466;1,5125;56,35387820;37,50928029;9,46000004;
14:11:24:839;-0,2510;0,1511;0,9523;56,35387820;37,50928029;9,46000004;
14:11:24:897;-0,2510;0,1511;0,9523;56,35387820;37,50928029;9,46000004;
14:11:24:899;-0,2510;0,1511;0,9523;56,35387820;37,50928029;9,46000004;
14:11:24:900;-0,4125;0,1064;-0,5321;56,35387820;37,50928029;9,46000004;
14:11:24:925;-0,4661;0,1638;-0,5122;56,35387820;37,50928029;9,46000004;
14:11:24:927;-0,4661;0,1638;-0,5122;56,35387820;37,50928029;9,46000004;
14:11:24:981;-0,4661;0,1638;-0,5122;56,35387820;37,50928029;9,46000004;
14:11:24:982;0,4670;-0,0575;1,4716;56,35383681;37,50942170;9,35000038;
14:11:24:984;0,4670;-0,0575;1,4716;56,35383681;37,50942170;9,35000038;
14:11:25:037;-0,2845;-0,0191;0,3847;56,35383681;37,50942170;9,35000038;
14:11:25:039;-0,2845;-0,0191;0,3847;56,35383681;37,50942170;9,35000038;
14:11:25:041;-0,2845;-0,0191;0,3847;56,35383681;37,50942170;9,35000038;
14:11:25:099;-0,2845;-0,0191;0,3847;56,35383681;37,50942170;9,35000038;
14:11:25:101;-0,1310;-0,2246;0,2506;56,35383681;37,50942170;9,35000038;
14:11:25:104;-0,1310;-0,2246;0,2506;56,35383681;37,50942170;9,35000038;
14:11:25:159;-0,1310;-0,2246;0,2506;56,35383681;37,50942170;9,35000038;
14:11:25:160;-0,1310;-0,2246;0,2506;56,35383681;37,50942170;9,35000038;
14:11:25:162;-0,4486;-0,1605;0,5259;56,35383681;37,50942170;9,35000038;
14:11:25:189;-0,4486;-0,1605;0,5259;56,35383681;37,50942170;9,35000038;
14:11:25:250;-0,4486;-0,1605;0,5259;56,35383681;37,50942170;9,35000038;
14:11:25:253;-0,4486;-0,1605;0,5259;56,35383681;37,50942170;9,35000038;
14:11:25:255;-0,2916;0,0805;0,2042;56,35383681;37,50942170;9,35000038;
14:11:25:310;-0,2916;0,0805;0,2042;56,35383681;37,50942170;9,35000038;
14:11:25:313;-0,2916;0,0805;0,2042;56,35383681;37,50942170;9,35000038;
14:11:25:315;-0,1561;0,0091;0,2179;56,35383681;37,50942170;9,35000038;
14:11:25:371;-0,1561;0,0091;0,2179;56,35383681;37,50942170;9,35000038;
14:11:25:373;-0,1561;0,0091;0,2179;56,35383681;37,50942170;9,35000038;
14:11:25:375;-0,1558;0,0690;0,3996;56,35383681;37,50942170;9,35000038;
14:11:25:431;-0,1558;0,0690;0,3996;56,35383681;37,50942170;9,35000038;
14:11:25:433;-0,1558;0,0690;0,3996;56,35383681;37,50942170;9,35000038;
14:11:25:435;-0,1408;0,0183;0,4722;56,35383681;37,50942170;9,35000038;
14:11:25:456;-0,1408;0,0183;0,4722;56,35383681;37,50942170;9,35000038;
14:11:25:459;-0,0880;-0,0516;0,4550;56,35383681;37,50942170;9,35000038;
14:11:25:511;-0,0880;-0,0516;0,4550;56,35383681;37,50942170;9,35000038;
14:11:25:514;-0,0880;-0,0516;0,4550;56,35383681;37,50942170;9,35000038;
14:11:25:516;-0,2972;0,0151;0,2220;56,35383681;37,50942170;9,35000038;
14:11:25:571;-0,2972;0,0151;0,2220;56,35383681;37,50942170;9,35000038;
14:11:25:573;-0,2972;0,0151;0,2220;56,35383681;37,50942170;9,35000038;
14:11:25:577;-0,2990;0,0181;0,0712;56,35383681;37,50942170;9,35000038;
14:11:25:632;-0,2990;0,0181;0,0712;56,35383681;37,50942170;9,35000038;
14:11:25:634;-0,2990;0,0181;0,0712;56,35383681;37,50942170;9,35000038;
14:11:25:636;-0,0384;0,0307;0,1390;56,35383681;37,50942170;9,35000038;
14:11:25:692;-0,0384;0,0307;0,1390;56,35383681;37,50942170;9,35000038;
14:11:25:695;-0,0384;0,0307;0,1390;56,35383681;37,50942170;9,35000038;
14:11:25:697;-0,0546;0,0543;0,2528;56,35383681;37,50942170;9,35000038;
14:11:25:712;-0,0546;0,0543;0,2528;56,35383681;37,50942170;9,35000038;
14:11:25:772;-0,0546;0,0543;0,2528;56,35383681;37,50942170;9,35000038;
14:11:25:775;-0,0546;0,0543;0,2528;56,35383681;37,50942170;9,35000038;
14:11:25:777;-0,2304;0,1110;0,2534;56,35383681;37,50942170;9,35000038;
14:11:25:833;-0,2304;0,1110;0,2534;56,35383681;37,50942170;9,35000038;
14:11:25:836;-0,2304;0,1110;0,2534;56,35383681;37,50942170;9,35000038;
14:11:25:838;-0,2066;0,1327;0,3434;56,35383681;37,50942170;9,35000038;
14:11:25:894;-0,2066;0,1327;0,3434;56,35383681;37,50942170;9,35000038;
14:11:25:898;-0,2066;0,1327;0,3434;56,35383681;37,50942170;9,35000038;
14:11:25:900;-0,1597;0,1238;0,2106;56,35383681;37,50942170;9,35000038;
14:11:25:952;-0,1597;0,1238;0,2106;56,35383681;37,50942170;9,35000038;
14:11:25:954;-0,1597;0,1238;0,2106;56,35382133;37,50955228;8,43999958;
14:11:25:955;-0,0680;0,0891;0,1482;56,35382133;37,50955228;8,43999958;
14:11:26:033;-0,0680;0,0891;0,1482;56,35382133;37,50955228;8,43999958;
14:11:26:035;-0,0680;0,0891;0,1482;56,35382133;37,50955228;8,43999958;
14:11:26:036;-0,1409;0,0903;0,1590;56,35382133;37,50955228;8,43999958;
14:11:26:094;-0,1409;0,0903;0,1590;56,35382133;37,50955228;8,43999958;
14:11:26:097;-0,1409;0,0903;0,1590;56,35382133;37,50955228;8,43999958;
14:11:26:100;-0,1743;0,1155;0,1049;56,35382133;37,50955228;8,43999958;
14:11:26:155;-0,1743;0,1155;0,1049;56,35382133;37,50955228;8,43999958;
14:11:26:157;-0,1743;0,1155;0,1049;56,35382133;37,50955228;8,43999958;
14:11:26:159;-0,0323;0,0714;0,0208;56,35382133;37,50955228;8,43999958;
14:11:26:214;-0,0323;0,0714;0,0208;56,35382133;37,50955228;8,43999958;
14:11:26:217;-0,0323;0,0714;0,0208;56,35382133;37,50955228;8,43999958;
14:11:26:219;-0,0710;0,0918;-0,0004;56,35382133;37,50955228;8,43999958;
14:11:26:236;-0,0615;0,0856;-0,0002;56,35382133;37,50955228;8,43999958;
14:11:26:239;-0,0615;0,0856;-0,0002;56,35382133;37,50955228;8,43999958;
14:11:26:295;-0,0615;0,0856;-0,0002;56,35382133;37,50955228;8,43999958;
14:11:26:298;-0,0615;0,0856;-0,0002;56,35382133;37,50955228;8,43999958;
14:11:26:300;-0,0265;0,0680;-0,0556;56,35382133;37,50955228;8,43999958;
14:11:26:355;-0,0265;0,0680;-0,0556;56,35382133;37,50955228;8,43999958;
14:11:26:358;-0,0265;0,0680;-0,0556;56,35382133;37,50955228;8,43999958;
14:11:26:360;0,0210;0,0441;0,1075;56,35382133;37,50955228;8,43999958;
14:11:26:418;0,0210;0,0441;0,1075;56,35382133;37,50955228;8,43999958;
14:11:26:420;0,0210;0,0441;0,1075;56,35382133;37,50955228;8,43999958;
14:11:26:422;-0,0759;0,0645;0,0550;56,35382133;37,50955228;8,43999958;
14:11:26:476;-0,0759;0,0645;0,0550;56,35382133;37,50955228;8,43999958;
14:11:26:479;-0,0759;0,0645;0,0550;56,35382133;37,50955228;8,43999958;
14:11:26:481;-0,0824;0,0569;0,0963;56,35382133;37,50955228;8,43999958;
14:11:26:497;-0,0824;0,0569;0,0963;56,35382133;37,50955228;8,43999958;
14:11:26:556;-0,0824;0,0569;0,0963;56,35382133;37,50955228;8,43999958;
14:11:26:560;-0,0824;0,0569;0,0963;56,35382133;37,50955228;8,43999958;
14:11:26:562;-0,0282;0,0338;-0,0447;56,35382133;37,50955228;8,43999958;
14:11:26:618;-0,0282;0,0338;-0,0447;56,35382133;37,50955228;8,43999958;
14:11:26:620;-0,0282;0,0338;-0,0447;56,35382133;37,50955228;8,43999958;
14:11:26:622;0,0477;0,0323;-0,0096;56,35382133;37,50955228;8,43999958;
14:11:26:678;0,0477;0,0323;-0,0096;56,35382133;37,50955228;8,43999958;
14:11:26:681;0,0477;0,0323;-0,0096;56,35382133;37,50955228;8,43999958;
14:11:26:683;-0,0549;0,0592;0,0331;56,35382133;37,50955228;8,43999958;
14:11:26:738;-0,0549;0,0592;0,0331;56,35382133;37,50955228;8,43999958;
14:11:26:740;-0,0549;0,0592;0,0331;56,35382133;37,50955228;8,43999958;
14:11:26:743;-0,0958;0,0501;0,3351;56,35382133;37,50955228;8,43999958;
14:11:26:819;-0,0958;0,0501;0,3351;56,35382133;37,50955228;8,43999958;
14:11:26:822;-0,0958;0,0501;0,3351;56,35382133;37,50955228;8,43999958;
14:11:26:823;-0,0558;0,0385;0,0322;56,35382133;37,50955228;8,43999958;
14:11:26:878;-0,0558;0,0385;0,0322;56,35382133;37,50955228;8,43999958;
14:11:26:881;-0,0558;0,0385;0,0322;56,35382133;37,50955228;8,43999958;
14:11:26:883;0,0054;0,0557;0,0357;56,35382133;37,50955228;8,43999958;
14:11:26:937;0,0054;0,0557;0,0357;56,35382133;37,50955228;8,43999958;
14:11:26:939;0,0054;0,0557;0,0357;56,35380136;37,50967436;7,88000011;
14:11:26:941;-0,0097;0,0201;0,0259;56,35380136;37,50967436;7,88000011;
14:11:26:998;-0,0097;0,0201;0,0259;56,35380136;37,50967436;7,88000011;
14:11:27:001;-0,0097;0,0201;0,0259;56,35380136;37,50967436;7,88000011;
14:11:27:002;0,0812;0,0476;0,0747;56,35380136;37,50967436;7,88000011;
14:11:27:019;0,0812;0,0476;0,0747;56,35380136;37,50967436;7,88000011;
14:11:27:022;0,0789;0,0490;0,0736;56,35380136;37,50967436;7,88000011;
14:11:27:081;0,0789;0,0490;0,0736;56,35380136;37,50967436;7,88000011;
14:11:27:084;0,0789;0,0490;0,0736;56,35380136;37,50967436;7,88000011;
14:11:27:086;0,0797;0,0547;-0,0275;56,35380136;37,50967436;7,88000011;
14:11:27:140;0,0797;0,0547;-0,0275;56,35380136;37,50967436;7,88000011;
14:11:27:142;0,0797;0,0547;-0,0275;56,35380136;37,50967436;7,88000011;
14:11:27:144;0,1477;0,0284;-0,0931;56,35380136;37,50967436;7,88000011;
14:11:27:199;0,1477;0,0284;-0,0931;56,35380136;37,50967436;7,88000011;
14:11:27:201;0,1477;0,0284;-0,0931;56,35380136;37,50967436;7,88000011;
14:11:27:202;0,1166;0,0241;0,1522;56,35380136;37,50967436;7,88000011;
14:11:27:261;0,1166;0,0241;0,1522;56,35380136;37,50967436;7,88000011;
14:11:27:264;0,1166;0,0241;0,1522;56,35380136;37,50967436;7,88000011;
14:11:27:266;0,1030;0,0427;0,0367;56,35380136;37,50967436;7,88000011;
14:11:27:283;0,1030;0,0427;0,0367;56,35380136;37,50967436;7,88000011;
14:11:27:341;0,1030;0,0427;0,0367;56,35380136;37,50967436;7,88000011;
14:11:27:343;0,1030;0,0427;0,0367;56,35380136;37,50967436;7,88000011;
14:11:27:345;-0,0178;0,0141;0,1390;56,35380136;37,50967436;7,88000011;
14:11:27:401;-0,0178;0,0141;0,1390;56,35380136;37,50967436;7,88000011;
14:11:27:404;-0,0178;0,0141;0,1390;56,35380136;37,50967436;7,88000011;
14:11:27:405;-0,1104;0,0467;0,2182;56,35380136;37,50967436;7,88000011;
14:11:27:461;-0,1104;0,0467;0,2182;56,35380136;37,50967436;7,88000011;
14:11:27:464;-0,1104;0,0467;0,2182;56,35380136;37,50967436;7,88000011;
14:11:27:466;-0,0243;0,0559;0,0469;56,35380136;37,50967436;7,88000011;
14:11:27:522;-0,0243;0,0559;0,0469;56,35380136;37,50967436;7,88000011;
14:11:27:526;-0,0243;0,0559;0,0469;56,35380136;37,50967436;7,88000011;
14:11:27:528;0,0533;0,0527;-0,0644;56,35380136;37,50967436;7,88000011;
14:11:27:602;0,0533;0,0527;-0,0644;56,35380136;37,50967436;7,88000011;
14:11:27:605;0,0533;0,0527;-0,0644;56,35380136;37,50967436;7,88000011;
14:11:27:607;0,0810;0,0638;-0,0215;56,35380136;37,50967436;7,88000011;
14:11:27:663;0,0810;0,0638;-0,0215;56,35380136;37,50967436;7,88000011;
14:11:27:665;0,0810;0,0638;-0,0215;56,35380136;37,50967436;7,88000011;
14:11:27:667;-0,0297;0,0414;0,2050;56,35380136;37,50967436;7,88000011;
14:11:27:723;-0,0297;0,0414;0,2050;56,35380136;37,50967436;7,88000011;
14:11:27:726;-0,0297;0,0414;0,2050;56,35380136;37,50967436;7,88000011;
14:11:27:728;-0,0789;0,0459;0,0997;56,35380136;37,50967436;7,88000011;
14:11:27:784;-0,0789;0,0459;0,0997;56,35380136;37,50967436;7,88000011;
14:11:27:787;-0,0789;0,0459;0,0997;56,35380136;37,50967436;7,88000011;
14:11:27:788;0,0687;0,0629;-0,2171;56,35380136;37,50967436;7,88000011;
14:11:27:810;0,0687;0,0629;-0,2171;56,35380136;37,50967436;7,88000011;
14:11:27:812;0,0655;0,0645;-0,2132;56,35380136;37,50967436;7,88000011;
14:11:27:863;0,0655;0,0645;-0,2132;56,35380136;37,50967436;7,88000011;
14:11:27:866;0,0655;0,0645;-0,2132;56,35380136;37,50967436;7,88000011;
14:11:27:868;0,0662;0,0621;0,0161;56,35380136;37,50967436;7,88000011;
14:11:27:933;0,0662;0,0621;0,0161;56,35380136;37,50967436;7,88000011;
14:11:27:936;0,0662;0,0621;0,0161;56,35380136;37,50967436;7,88000011;
14:11:27:938;0,0333;0,0376;0,1514;56,35380136;37,50967436;7,88000011;
14:11:27:983;0,0333;0,0376;0,1514;56,35380136;37,50967436;7,88000011;
14:11:27:985;0,0333;0,0376;0,1514;56,35378030;37,50978924;7,82000017;
14:11:27:987;0,0993;0,0206;0,0303;56,35378030;37,50978924;7,82000017;
14:11:28:044;0,0993;0,0206;0,0303;56,35378030;37,50978924;7,82000017;
14:11:28:046;0,0993;0,0206;0,0303;56,35378030;37,50978924;7,82000017;
14:11:28:049;0,0517;0,0533;-0,0883;56,35378030;37,50978924;7,82000017;
14:11:28:065;0,0517;0,0533;-0,0883;56,35378030;37,50978924;7,82000017;
14:11:28:124;0,0517;0,0533;-0,0883;56,35378030;37,50978924;7,82000017;
14:11:28:126;0,0517;0,0533;-0,0883;56,35378030;37,50978924;7,82000017;
14:11:28:128;0,1101;0,0459;0,0171;56,35378030;37,50978924;7,82000017;
14:11:28:184;0,1101;0,0459;0,0171;56,35378030;37,50978924;7,82000017;
14:11:28:186;0,1101;0,0459;0,0171;56,35378030;37,50978924;7,82000017;
14:11:28:188;0,0454;0,0427;-0,0201;56,35378030;37,50978924;7,82000017;
14:11:28:246;0,0454;0,0427;-0,0201;56,35378030;37,50978924;7,82000017;
14:11:28:249;0,0454;0,0427;-0,0201;56,35378030;37,50978924;7,82000017;
14:11:28:251;0,0182;-0,0027;-0,0174;56,35378030;37,50978924;7,82000017;
14:11:28:306;0,0182;-0,0027;-0,0174;56,35378030;37,50978924;7,82000017;
14:11:28:310;0,0182;-0,0027;-0,0174;56,35378030;37,50978924;7,82000017;
14:11:28:312;-0,0781;0,0155;0,1629;56,35378030;37,50978924;7,82000017;
14:11:28:387;-0,0781;0,0155;0,1629;56,35378030;37,50978924;7,82000017;
14:11:28:389;-0,0781;0,0155;0,1629;56,35378030;37,50978924;7,82000017;
14:11:28:391;0,0018;0,0064;-0,0871;56,35378030;37,50978924;7,82000017;
14:11:28:448;0,0018;0,0064;-0,0871;56,35378030;37,50978924;7,82000017;
14:11:28:450;0,0018;0,0064;-0,0871;56,35378030;37,50978924;7,82000017;
14:11:28:452;0,0674;-0,0613;-0,0255;56,35378030;37,50978924;7,82000017;
14:11:28:509;0,0674;-0,0613;-0,0255;56,35378030;37,50978924;7,82000017;
14:11:28:512;0,0674;-0,0613;-0,0255;56,35378030;37,50978924;7,82000017;
14:11:28:514;-0,0006;-0,0189;0,0377;56,35378030;37,50978924;7,82000017;
14:11:28:567;-0,0006;-0,0189;0,0377;56,35378030;37,50978924;7,82000017;
14:11:28:569;-0,0006;-0,0189;0,0377;56,35378030;37,50978924;7,82000017;
14:11:28:572;0,0305;-0,0684;0,0674;56,35378030;37,50978924;7,82000017;
14:11:28:591;0,0326;-0,0615;0,0595;56,35378030;37,50978924;7,82000017;
14:11:28:595;0,0326;-0,0615;0,0595;56,35378030;37,50978924;7,82000017;
14:11:28:648;0,0326;-0,0615;0,0595;56,35378030;37,50978924;7,82000017;
14:11:28:650;0,0276;-0,0281;-0,1374;56,35378030;37,50978924;7,82000017;
14:11:28:653;0,0276;-0,0281;-0,1374;56,35378030;37,50978924;7,82000017;
14:11:28:709;0,0276;-0,0281;-0,1374;56,35378030;37,50978924;7,82000017;
14:11:28:711;0,0276;-0,0281;-0,1374;56,35378030;37,50978924;7,82000017;
14:11:28:713;-0,0351;-0,0176;-0,1693;56,35378030;37,50978924;7,82000017;
14:11:28:769;-0,0351;-0,0176;-0,1693;56,35378030;37,50978924;7,82000017;
14:11:28:772;-0,0351;-0,0176;-0,1693;56,35378030;37,50978924;7,82000017;
14:11:28:774;-0,0887;-0,0426;0,0624;56,35378030;37,50978924;7,82000017;
14:11:28:830;-0,0887;-0,0426;0,0624;56,35378030;37,50978924;7,82000017;
14:11:28:832;-0,0887;-0,0426;0,0624;56,35378030;37,50978924;7,82000017;
14:11:28:833;-0,0233;-0,0722;0,3094;56,35378030;37,50978924;7,82000017;
14:11:28:854;-0,0233;-0,0722;0,3094;56,35378030;37,50978924;7,82000017;
14:11:28:908;-0,0233;-0,0722;0,3094;56,35378030;37,50978924;7,82000017;
14:11:28:909;-0,0233;-0,0722;0,3094;56,35378030;37,50978924;7,82000017;
14:11:28:911;0,1423;-0,1188;-0,0324;56,35378030;37,50978924;7,82000017;
14:11:28:968;0,1423;-0,1188;-0,0324;56,35378030;37,50978924;7,82000017;
14:11:28:970;0,1423;-0,1188;-0,0324;56,35375315;37,50990630;8,15999985;
14:11:28:971;0,0293;-0,0671;0,0066;56,35375315;37,50990630;8,15999985;
14:11:29:031;0,0293;-0,0671;0,0066;56,35375315;37,50990630;8,15999985;
14:11:29:032;0,0293;-0,0671;0,0066;56,35375315;37,50990630;8,15999985;
14:11:29:033;-0,0029;-0,0590;0,1457;56,35375315;37,50990630;8,15999985;
14:11:29:089;-0,0029;-0,0590;0,1457;56,35375315;37,50990630;8,15999985;
14:11:29:092;-0,0029;-0,0590;0,1457;56,35375315;37,50990630;8,15999985;
14:11:29:094;-0,0175;-0,0395;0,0852;56,35375315;37,50990630;8,15999985;
14:11:29:170;-0,0175;-0,0395;0,0852;56,35375315;37,50990630;8,15999985;
14:11:29:173;-0,0175;-0,0395;0,0852;56,35375315;37,50990630;8,15999985;
14:11:29:175;-0,0097;-0,1358;0,1012;56,35375315;37,50990630;8,15999985;
14:11:29:231;-0,0097;-0,1358;0,1012;56,35375315;37,50990630;8,15999985;
14:11:29:234;-0,0097;-0,1358;0,1012;56,35375315;37,50990630;8,15999985;
14:11:29:235;0,0958;-0,0714;0,0371;56,35375315;37,50990630;8,15999985;
14:11:29:291;0,0958;-0,0714;0,0371;56,35375315;37,50990630;8,15999985;
14:11:29:294;0,0958;-0,0714;0,0371;56,35375315;37,50990630;8,15999985;
14:11:29:296;0,0828;-0,0664;0,0386;56,35375315;37,50990630;8,15999985;
14:11:29:353;0,0828;-0,0664;0,0386;56,35375315;37,50990630;8,15999985;
14:11:29:355;0,0828;-0,0664;0,0386;56,35375315;37,50990630;8,15999985;
14:11:29:357;0,0322;-0,0835;0,0291;56,35375315;37,50990630;8,15999985;
14:11:29:373;0,0322;-0,0835;0,0291;56,35375315;37,50990630;8,15999985;
14:11:29:374;0,0378;-0,0721;0,0254;56,35375315;37,50990630;8,15999985;
14:11:29:431;0,0378;-0,0721;0,0254;56,35375315;37,50990630;8,15999985;
14:11:29:436;0,0378;-0,0721;0,0254;56,35375315;37,50990630;8,15999985;
14:11:29:440;-0,0092;-0,0671;0,0385;56,35375315;37,50990630;8,15999985;
14:11:29:494;0,0241;-0,0207;0,1335;56,35375315;37,50990630;8,15999985;
14:11:29:496;0,0241;-0,0207;0,1335;56,35375315;37,50990630;8,15999985;
14:11:29:497;0,0241;-0,0207;0,1335;56,35375315;37,50990630;8,15999985;
14:11:29:551;0,0241;-0,0207;0,1335;56,35375315;37,50990630;8,15999985;
14:11:29:553;0,0241;-0,0207;0,1335;56,35375315;37,50990630;8,15999985;
14:11:29:554;0,0458;-0,0557;0,0273;56,35375315;37,50990630;8,15999985;
14:11:29:613;0,0458;-0,0557;0,0273;56,35375315;37,50990630;8,15999985;
14:11:29:616;0,0458;-0,0557;0,0273;56,35375315;37,50990630;8,15999985;
14:11:29:618;0,1042;-0,0497;-0,0802;56,35375315;37,50990630;8,15999985;
14:11:29:636;0,1042;-0,0497;-0,0802;56,35375315;37,50990630;8,15999985;
14:11:29:694;0,1042;-0,0497;-0,0802;56,35375315;37,50990630;8,15999985;
14:11:29:698;0,1042;-0,0497;-0,0802;56,35375315;37,50990630;8,15999985;
14:11:29:703;-0,0718;-0,0372;0,0851;56,35375315;37,50990630;8,15999985;
14:11:29:754;-0,0718;-0,0372;0,0851;56,35375315;37,50990630;8,15999985;
14:11:29:757;-0,0718;-0,0372;0,0851;56,35375315;37,50990630;8,15999985;
14:11:29:758;0,0565;0,0241;-0,0058;56,35375315;37,50990630;8,15999985;
14:11:29:813;0,0565;0,0241;-0,0058;56,35375315;37,50990630;8,15999985;
14:11:29:816;0,0565;0,0241;-0,0058;56,35375315;37,50990630;8,15999985;
14:11:29:817;-0,0159;0,0833;-0,0437;56,35375315;37,50990630;8,15999985;
14:11:29:874;-0,0159;0,0833;-0,0437;56,35375315;37,50990630;8,15999985;
14:11:29:877;-0,0522;0,0281;-0,0591;56,35375315;37,50990630;8,15999985;
14:11:29:880;-0,0522;0,0281;-0,0591;56,35375315;37,50990630;8,15999985;
14:11:29:954;-0,0522;0,0281;-0,0591;56,35375315;37,50990630;8,15999985;
14:11:29:955;-0,0522;0,0281;-0,0591;56,35373541;37,51004328;8,71000004;
14:11:29:957;0,0087;0,1999;0,0690;56,35373541;37,51004328;8,71000004;
14:11:30:014;0,0087;0,1999;0,0690;56,35373541;37,51004328;8,71000004;
14:11:30:016;0,0087;0,1999;0,0690;56,35373541;37,51004328;8,71000004;
14:11:30:017;0,0426;0,1162;0,0068;56,35373541;37,51004328;8,71000004;
14:11:30:076;0,0426;0,1162;0,0068;56,35373541;37,51004328;8,71000004;
14:11:30:078;0,0426;0,1162;0,0068;56,35373541;37,51004328;8,71000004;
14:11:30:082;-0,0008;0,1524;-0,1406;56,35373541;37,51004328;8,71000004;
14:11:30:136;-0,0008;0,1524;-0,1406;56,35373541;37,51004328;8,71000004;
14:11:30:139;-0,0008;0,1524;-0,1406;56,35373541;37,51004328;8,71000004;
14:11:30:141;0,0140;0,0778;-0,0984;56,35373541;37,51004328;8,71000004;
14:11:30:159;0,0091;0,0703;-0,0872;56,35373541;37,51004328;8,71000004;
14:11:30:162;0,0091;0,0703;-0,0872;56,35373541;37,51004328;8,71000004;
14:11:30:216;0,0091;0,0703;-0,0872;56,35373541;37,51004328;8,71000004;
14:11:30:218;0,0091;0,0703;-0,0872;56,35373541;37,51004328;8,71000004;
14:11:30:220;-0,0326;0,1497;0,1079;56,35373541;37,51004328;8,71000004;
14:11:30:277;-0,0326;0,1497;0,1079;56,35373541;37,51004328;8,71000004;
14:11:30:280;-0,0326;0,1497;0,1079;56,35373541;37,51004328;8,71000004;
14:11:30:282;0,0102;0,0767;0,0097;56,35373541;37,51004328;8,71000004;
14:11:30:337;0,0102;0,0767;0,0097;56,35373541;37,51004328;8,71000004;
14:11:30:341;0,0102;0,0767;0,0097;56,35373541;37,51004328;8,71000004;
14:11:30:343;-0,0170;0,0344;-0,1048;56,35373541;37,51004328;8,71000004;
14:11:30:397;-0,0170;0,0344;-0,1048;56,35373541;37,51004328;8,71000004;
14:11:30:400;-0,0170;0,0344;-0,1048;56,35373541;37,51004328;8,71000004;
14:11:30:404;-0,0278;0,0566;-0,0450;56,35373541;37,51004328;8,71000004;
14:11:30:427;-0,0278;0,0566;-0,0450;56,35373541;37,51004328;8,71000004;
14:11:30:478;-0,0278;0,0566;-0,0450;56,35373541;37,51004328;8,71000004;
14:11:30:481;-0,0278;0,0566;-0,0450;56,35373541;37,51004328;8,71000004;
14:11:30:483;0,0605;0,0640;0,0998;56,35373541;37,51004328;8,71000004;
14:11:30:539;0,0605;0,0640;0,0998;56,35373541;37,51004328;8,71000004;
14:11:30:541;0,0605;0,0640;0,0998;56,35373541;37,51004328;8,71000004;
14:11:30:543;0,0172;0,0002;0,0488;56,35373541;37,51004328;8,71000004;
14:11:30:599;0,0172;0,0002;0,0488;56,35373541;37,51004328;8,71000004;
14:11:30:601;0,0172;0,0002;0,0488;56,35373541;37,51004328;8,71000004;
14:11:30:603;0,0639;0,0404;0,0516;56,35373541;37,51004328;8,71000004;
14:11:30:659;0,0639;0,0404;0,0516;56,35373541;37,51004328;8,71000004;
14:11:30:661;0,0639;0,0404;0,0516;56,35373541;37,51004328;8,71000004;
14:11:30:663;0,0112;0,0648;0,0310;56,35373541;37,51004328;8,71000004;
14:11:30:739;0,0112;0,0648;0,0310;56,35373541;37,51004328;8,71000004;
14:11:30:742;0,0112;0,0648;0,0310;56,35373541;37,51004328;8,71000004;
14:11:30:744;0,0776;0,0158;-0,1185;56,35373541;37,51004328;8,71000004;
14:11:30:799;0,0776;0,0158;-0,1185;56,35373541;37,51004328;8,71000004;
14:11:30:802;0,0776;0,0158;-0,1185;56,35373541;37,51004328;8,71000004;
14:11:30:805;-0,0224;0,0126;-0,0423;56,35373541;37,51004328;8,71000004;
14:11:30:860;-0,0224;0,0126;-0,0423;56,35373541;37,51004328;8,71000004;
14:11:30:863;-0,0224;0,0126;-0,0423;56,35373541;37,51004328;8,71000004;
14:11:30:865;-0,0147;0,0364;0,0482;56,35373541;37,51004328;8,71000004;
14:11:30:922;-0,0147;0,0364;0,0482;56,35373541;37,51004328;8,71000004;
14:11:30:925;-0,0147;0,0364;0,0482;56,35373541;37,51004328;8,71000004;
14:11:30:927;-0,0266;0,0094;0,1602;56,35373541;37,51004328;8,71000004;
14:11:30:945;-0,0266;0,0094;0,1602;56,35373541;37,51004328;8,71000004;
14:11:30:947;-0,0252;0,0092;0,1426;56,35370910;37,51015296;8,06999969;
14:11:30:999;-0,0252;0,0092;0,1426;56,35370910;37,51015296;8,06999969;
14:11:31:000;-0,0252;0,0092;0,1426;56,35370910;37,51015296;8,06999969;
14:11:31:001;0,1304;0,0107;0,0056;56,35370910;37,51015296;8,06999969;
14:11:31:061;0,1304;0,0107;0,0056;56,35370910;37,51015296;8,06999969;
14:11:31:064;0,1304;0,0107;0,0056;56,35370910;37,51015296;8,06999969;
14:11:31:067;0,0046;0,0127;-0,1544;56,35370910;37,51015296;8,06999969;
14:11:31:120;0,0046;0,0127;-0,1544;56,35370910;37,51015296;8,06999969;
14:11:31:124;0,0046;0,0127;-0,1544;56,35370910;37,51015296;8,06999969;
14:11:31:126;-0,0090;0,0004;-0,0483;56,35370910;37,51015296;8,06999969;
14:11:31:182;-0,0090;0,0004;-0,0483;56,35370910;37,51015296;8,06999969;
14:11:31:184;-0,0090;0,0004;-0,0483;56,35370910;37,51015296;8,06999969;
14:11:31:186;-0,0943;0,0270;0,1946;56,35370910;37,51015296;8,06999969;
14:11:31:210;-0,0943;0,0270;0,1946;56,35370910;37,51015296;8,06999969;
14:11:31:262;-0,0943;0,0270;0,1946;56,35370910;37,51015296;8,06999969;
14:11:31:265;-0,0943;0,0270;0,1946;56,35370910;37,51015296;8,06999969;
14:11:31:267;0,1130;0,0050;-0,0584;56,35370910;37,51015296;8,06999969;
14:11:31:321;0,1130;0,0050;-0,0584;56,35370910;37,51015296;8,06999969;
14:11:31:324;0,1130;0,0050;-0,0584;56,35370910;37,51015296;8,06999969;
14:11:31:326;-0,0148;0,0163;-0,1142;56,35370910;37,51015296;8,06999969;
14:11:31:383;-0,0148;0,0163;-0,1142;56,35370910;37,51015296;8,06999969;
14:11:31:386;-0,0148;0,0163;-0,1142;56,35370910;37,51015296;8,06999969;
14:11:31:387;0,0315;0,0283;0,0501;56,35370910;37,51015296;8,06999969;
14:11:31:443;0,0315;0,0283;0,0501;56,35370910;37,51015296;8,06999969;
14:11:31:446;0,0315;0,0283;0,0501;56,35370910;37,51015296;8,06999969;
14:11:31:448;0,1235;0,0508;0,0301;56,35370910;37,51015296;8,06999969;
14:11:31:523;0,1235;0,0508;0,0301;56,35370910;37,51015296;8,06999969;
14:11:31:527;0,1235;0,0508;0,0301;56,35370910;37,51015296;8,06999969;
14:11:31:529;0,0121;-0,0187;0,0277;56,35370910;37,51015296;8,06999969;
14:11:31:584;0,0121;-0,0187;0,0277;56,35370910;37,51015296;8,06999969;
14:11:31:587;0,0121;-0,0187;0,0277;56,35370910;37,51015296;8,06999969;
14:11:31:589;-0,0225;-0,0166;0,0415;56,35370910;37,51015296;8,06999969;
14:11:31:644;-0,0225;-0,0166;0,0415;56,35370910;37,51015296;8,06999969;
14:11:31:647;-0,0225;-0,0166;0,0415;56,35370910;37,51015296;8,06999969;
14:11:31:649;-0,0664;0,0382;0,0276;56,35370910;37,51015296;8,06999969;
14:11:31:705;-0,0664;0,0382;0,0276;56,35370910;37,51015296;8,06999969;
14:11:31:707;-0,0664;0,0382;0,0276;56,35370910;37,51015296;8,06999969;
14:11:31:709;0,0447;0,0001;-0,1103;56,35370910;37,51015296;8,06999969;
14:11:31:728;0,0447;0,0001;-0,1103;56,35370910;37,51015296;8,06999969;
14:11:31:731;0,0460;-0,0033;-0,0986;56,35370910;37,51015296;8,06999969;
14:11:31:784;0,0460;-0,0033;-0,0986;56,35370910;37,51015296;8,06999969;
14:11:31:787;0,0460;-0,0033;-0,0986;56,35370910;37,51015296;8,06999969;
14:11:31:788;0,0366;0,0154;-0,1603;56,35370910;37,51015296;8,06999969;
14:11:31:845;0,0366;0,0154;-0,1603;56,35370910;37,51015296;8,06999969;
14:11:31:848;0,0366;0,0154;-0,1603;56,35370910;37,51015296;8,06999969;
14:11:31:850;-0,0258;0,0151;0,0046;56,35370910;37,51015296;8,06999969;
14:11:31:904;-0,0258;0,0151;0,0046;56,35370910;37,51015296;8,06999969;
14:11:31:906;-0,0258;0,0151;0,0046;56,35370910;37,51015296;8,06999969;
14:11:31:907;-0,0383;-0,0156;0,1692;56,35370910;37,51015296;8,06999969;
14:11:31:965;-0,0383;-0,0156;0,1692;56,35370910;37,51015296;8,06999969;
14:11:31:967;-0,0383;-0,0156;0,1692;56,35368230;37,51028106;8,15999985;
14:11:31:969;0,0613;0,0372;-0,0041;56,35368230;37,51028106;8,15999985;
14:11:31:990;0,0613;0,0372;-0,0041;56,35368230;37,51028106;8,15999985;
14:11:32:045;0,0613;0,0372;-0,0041;56,35368230;37,51028106;8,15999985;
14:11:32:047;0,0613;0,0372;-0,0041;56,35368230;37,51028106;8,15999985;
14:11:32:049;-0,0269;0,0007;-0,0460;56,35368230;37,51028106;8,15999985;
14:11:32:106;-0,0269;0,0007;-0,0460;56,35368230;37,51028106;8,15999985;
14:11:32:108;-0,0269;0,0007;-0,0460;56,35368230;37,51028106;8,15999985;
14:11:32:110;-0,0330;0,0101;0,0436;56,35368230;37,51028106;8,15999985;
14:11:32:166;-0,0330;0,0101;0,0436;56,35368230;37,51028106;8,15999985;
14:11:32:169;-0,0330;0,0101;0,0436;56,35368230;37,51028106;8,15999985;
14:11:32:171;0,0133;0,0428;-0,1163;56,35368230;37,51028106;8,15999985;
14:11:32:226;0,0133;0,0428;-0,1163;56,35368230;37,51028106;8,15999985;
14:11:32:228;0,0133;0,0428;-0,1163;56,35368230;37,51028106;8,15999985;
14:11:32:230;0,0015;-0,0387;-0,1033;56,35368230;37,51028106;8,15999985;
14:11:32:308;0,0015;-0,0387;-0,1033;56,35368230;37,51028106;8,15999985;
14:11:32:311;0,0015;-0,0387;-0,1033;56,35368230;37,51028106;8,15999985;
14:11:32:313;0,0559;0,0387;0,0861;56,35368230;37,51028106;8,15999985;
14:11:32:368;0,0559;0,0387;0,0861;56,35368230;37,51028106;8,15999985;
14:11:32:371;0,0559;0,0387;0,0861;56,35368230;37,51028106;8,15999985;
14:11:32:372;0,0468;0,0121;0,0342;56,35368230;37,51028106;8,15999985;
14:11:32:427;0,0468;0,0121;0,0342;56,35368230;37,51028106;8,15999985;
14:11:32:428;0,0468;0,0121;0,0342;56,35368230;37,51028106;8,15999985;
14:11:32:431;0,0114;0,0258;-0,0917;56,35368230;37,51028106;8,15999985;
14:11:32:488;0,0114;0,0258;-0,0917;56,35368230;37,51028106;8,15999985;
14:11:32:492;0,0114;0,0258;-0,0917;56,35368230;37,51028106;8,15999985;
14:11:32:494;-0,1029;0,0130;-0,1114;56,35368230;37,51028106;8,15999985;
14:11:32:512;-0,0957;0,0161;-0,0985;56,35368230;37,51028106;8,15999985;
14:11:32:514;-0,0957;0,0161;-0,0985;56,35368230;37,51028106;8,15999985;
14:11:32:569;-0,0957;0,0161;-0,0985;56,35368230;37,51028106;8,15999985;
14:11:32:571;-0,0957;0,0161;-0,0985;56,35368230;37,51028106;8,15999985;
14:11:32:573;-0,1143;0,0250;-0,0251;56,35368230;37,51028106;8,15999985;
14:11:32:629;-0,1143;0,0250;-0,0251;56,35368230;37,51028106;8,15999985;
14:11:32:633;-0,1143;0,0250;-0,0251;56,35368230;37,51028106;8,15999985;
14:11:32:635;-0,0048;0,0172;0,1685;56,35368230;37,51028106;8,15999985;
14:11:32:690;-0,0048;0,0172;0,1685;56,35368230;37,51028106;8,15999985;
14:11:32:693;-0,0048;0,0172;0,1685;56,35368230;37,51028106;8,15999985;
14:11:32:695;0,1088;0,0205;-0,0266;56,35368230;37,51028106;8,15999985;
14:11:32:750;0,1088;0,0205;-0,0266;56,35368230;37,51028106;8,15999985;
14:11:32:752;0,1088;0,0205;-0,0266;56,35368230;37,51028106;8,15999985;
14:11:32:756;0,0670;-0,0234;0,1367;56,35368230;37,51028106;8,15999985;
14:11:32:775;0,0670;-0,0234;0,1367;56,35368230;37,51028106;8,15999985;
14:11:32:830;0,0670;-0,0234;0,1367;56,35368230;37,51028106;8,15999985;
14:11:32:833;0,0670;-0,0234;0,1367;56,35368230;37,51028106;8,15999985;
14:11:32:835;-0,1343;0,0112;0,0656;56,35368230;37,51028106;8,15999985;
14:11:32:890;-0,1343;0,0112;0,0656;56,35368230;37,51028106;8,15999985;
14:11:32:892;-0,1343;0,0112;0,0656;56,35368230;37,51028106;8,15999985;
14:11:32:895;-0,0865;0,0242;0,0668;56,35368230;37,51028106;8,15999985;
14:11:32:950;-0,0865;0,0242;0,0668;56,35368230;37,51028106;8,15999985;
14:11:32:952;-0,0865;0,0242;0,0668;56,35365268;37,51041867;7,78999996;
14:11:32:954;-0,0392;-0,0276;0,0394;56,35365268;37,51041867;7,78999996;
14:11:33:010;-0,0392;-0,0276;0,0394;56,35365268;37,51041867;7,78999996;
14:11:33:012;0,0214;-0,0299;0,2257;56,35365268;37,51041867;7,78999996;
14:11:33:014;0,0214;-0,0299;0,2257;56,35365268;37,51041867;7,78999996;
14:11:33:091;0,0214;-0,0299;0,2257;56,35365268;37,51041867;7,78999996;
14:11:33:094;-0,0303;-0,0151;0,3236;56,35365268;37,51041867;7,78999996;
14:11:33:097;-0,0303;-0,0151;0,3236;56,35365268;37,51041867;7,78999996;
14:11:33:153;-0,0303;-0,0151;0,3236;56,35365268;37,51041867;7,78999996;
14:11:33:156;-0,0303;-0,0151;0,3236;56,35365268;37,51041867;7,78999996;
14:11:33:157;0,0439;-0,0325;-0,1164;56,35365268;37,51041867;7,78999996;
14:11:33:213;0,0439;-0,0325;-0,1164;56,35365268;37,51041867;7,78999996;
14:11:33:216;0,0439;-0,0325;-0,1164;56,35365268;37,51041867;7,78999996;
14:11:33:217;0,0300;-0,0297;-0,2139;56,35365268;37,51041867;7,78999996;
14:11:33:272;0,0300;-0,0297;-0,2139;56,35365268;37,51041867;7,78999996;
14:11:33:274;0,0300;-0,0297;-0,2139;56,35365268;37,51041867;7,78999996;
14:11:33:277;-0,0727;0,0001;-0,0850;56,35365268;37,51041867;7,78999996;
14:11:33:298;-0,0727;0,0001;-0,0850;56,35365268;37,51041867;7,78999996;
14:11:33:302;-0,0767;0,0036;-0,0831;56,35365268;37,51041867;7,78999996;
14:11:33:353;-0,0767;0,0036;-0,0831;56,35365268;37,51041867;7,78999996;
14:11:33:356;-0,0767;0,0036;-0,0831;56,35365268;37,51041867;7,78999996;
14:11:33:358;-0,0848;-0,0151;-0,0245;56,35365268;37,51041867;7,78999996;
14:11:33:413;-0,0848;-0,0151;-0,0245;56,35365268;37,51041867;7,78999996;
14:11:33:416;-0,0848;-0,0151;-0,0245;56,35365268;37,51041867;7,78999996;
14:11:33:418;0,0856;-0,0683;0,0378;56,35365268;37,51041867;7,78999996;
14:11:33:474;0,0856;-0,0683;0,0378;56,35365268;37,51041867;7,78999996;
14:11:33:478;0,0856;-0,0683;0,0378;56,35365268;37,51041867;7,78999996;
14:11:33:481;0,0407;-0,0908;0,0516;56,35365268;37,51041867;7,78999996;
14:11:33:533;0,0407;-0,0908;0,0516;56,35365268;37,51041867;7,78999996;
14:11:33:536;0,0407;-0,0908;0,0516;56,35365268;37,51041867;7,78999996;
14:11:33:539;-0,0644;-0,0756;-0,0207;56,35365268;37,51041867;7,78999996;
14:11:33:561;-0,0644;-0,0756;-0,0207;56,35365268;37,51041867;7,78999996;
14:11:33:614;-0,0644;-0,0756;-0,0207;56,35365268;37,51041867;7,78999996;
14:11:33:618;-0,0594;-0,1168;-0,0320;56,35365268;37,51041867;7,78999996;
14:11:33:621;-0,0594;-0,1168;-0,0320;56,35365268;37,51041867;7,78999996;
14:11:33:674;-0,0594;-0,1168;-0,0320;56,35365268;37,51041867;7,78999996;
14:11:33:678;-0,0594;-0,1168;-0,0320;56,35365268;37,51041867;7,78999996;
14:11:33:680;-0,0221;-0,1298;-0,1248;56,35365268;37,51041867;7,78999996;
14:11:33:735;-0,0221;-0,1298;-0,1248;56,35365268;37,51041867;7,78999996;
14:11:33:737;-0,0221;-0,1298;-0,1248;56,35365268;37,51041867;7,78999996;
14:11:33:740;0,0542;-0,1017;-0,0447;56,35365268;37,51041867;7,78999996;
14:11:33:795;0,0542;-0,1017;-0,0447;56,35365268;37,51041867;7,78999996;
14:11:33:799;0,0542;-0,1017;-0,0447;56,35365268;37,51041867;7,78999996;
14:11:33:802;0,0783;-0,1664;0,1141;56,35365268;37,51041867;7,78999996;
14:11:33:876;0,0783;-0,1664;0,1141;56,35365268;37,51041867;7,78999996;
14:11:33:878;0,0783;-0,1664;0,1141;56,35365268;37,51041867;7,78999996;
14:11:33:882;-0,0238;-0,0752;0,0507;56,35365268;37,51041867;7,78999996;
14:11:33:935;-0,0238;-0,0752;0,0507;56,35365268;37,51041867;7,78999996;
14:11:33:937;-0,0238;-0,0752;0,0507;56,35365268;37,51041867;7,78999996;
14:11:33:939;-0,0036;-0,1563;0,1144;56,35365268;37,51041867;7,78999996;
14:11:33:994;-0,0036;-0,1563;0,1144;56,35365268;37,51041867;7,78999996;
14:11:33:996;-0,0036;-0,1563;0,1144;56,35362405;37,51055341;8,17000008;
14:11:33:998;-0,0007;-0,0771;0,0207;56,35362405;37,51055341;8,17000008;
14:11:34:055;-0,0007;-0,0771;0,0207;56,35362405;37,51055341;8,17000008;
14:11:34:056;-0,0007;-0,0771;0,0207;56,35362405;37,51055341;8,17000008;
14:11:34:058;-0,0416;-0,0965;-0,1414;56,35362405;37,51055341;8,17000008;
14:11:34:081;-0,0416;-0,0965;-0,1414;56,35362405;37,51055341;8,17000008;
14:11:34:083;-0,0319;-0,0873;-0,1261;56,35362405;37,51055341;8,17000008;
14:11:34:136;-0,0319;-0,0873;-0,1261;56,35362405;37,51055341;8,17000008;
14:11:34:137;-0,0319;-0,0873;-0,1261;56,35362405;37,51055341;8,17000008;
14:11:34:139;0,0898;-0,0901;-0,0283;56,35362405;37,51055341;8,17000008;
14:11:34:196;0,0898;-0,0901;-0,0283;56,35362405;37,51055341;8,17000008;
14:11:34:199;0,0898;-0,0901;-0,0283;56,35362405;37,51055341;8,17000008;
14:11:34:201;0,0058;-0,0540;-0,0796;56,35362405;37,51055341;8,17000008;
14:11:34:256;0,0058;-0,0540;-0,0796;56,35362405;37,51055341;8,17000008;
14:11:34:258;0,0058;-0,0540;-0,0796;56,35362405;37,51055341;8,17000008;
14:11:34:260;-0,1091;-0,0173;-0,1335;56,35362405;37,51055341;8,17000008;
14:11:34:317;-0,1091;-0,0173;-0,1335;56,35362405;37,51055341;8,17000008;
14:11:34:320;-0,1091;-0,0173;-0,1335;56,35362405;37,51055341;8,17000008;
14:11:34:322;0,0997;-0,0019;-0,0949;56,35362405;37,51055341;8,17000008;
14:11:34:341;0,0997;-0,0019;-0,0949;56,35362405;37,51055341;8,17000008;
14:11:34:398;0,0997;-0,0019;-0,0949;56,35362405;37,51055341;8,17000008;
14:11:34:401;0,0997;-0,0019;-0,0949;56,35362405;37,51055341;8,17000008;
14:11:34:403;-0,0312;-0,0345;0,0399;56,35362405;37,51055341;8,17000008;
14:11:34:458;-0,0312;-0,0345;0,0399;56,35362405;37,51055341;8,17000008;
14:11:34:461;-0,0312;-0,0345;0,0399;56,35362405;37,51055341;8,17000008;
14:11:34:462;-0,0152;0,0117;-0,0306;56,35362405;37,51055341;8,17000008;
14:11:34:518;-0,0152;0,0117;-0,0306;56,35362405;37,51055341;8,17000008;
14:11:34:521;-0,0152;0,0117;-0,0306;56,35362405;37,51055341;8,17000008;
14:11:34:522;-0,0978;-0,0093;0,0852;56,35362405;37,51055341;8,17000008;
14:11:34:579;-0,0978;-0,0093;0,0852;56,35362405;37,51055341;8,17000008;
14:11:34:582;-0,0978;-0,0093;0,0852;56,35362405;37,51055341;8,17000008;
14:11:34:584;-0,0330;-0,0392;0,1091;56,35362405;37,51055341;8,17000008;
14:11:34:660;-0,0330;-0,0392;0,1091;56,35362405;37,51055341;8,17000008;
14:11:34:662;-0,0330;-0,0392;0,1091;56,35362405;37,51055341;8,17000008;
14:11:34:664;-0,0098;-0,0037;-0,1297;56,35362405;37,51055341;8,17000008;
14:11:34:720;-0,0098;-0,0037;-0,1297;56,35362405;37,51055341;8,17000008;
14:11:34:723;-0,0098;-0,0037;-0,1297;56,35362405;37,51055341;8,17000008;
14:11:34:725;0,0011;0,0420;-0,0036;56,35362405;37,51055341;8,17000008;
14:11:34:780;0,0011;0,0420;-0,0036;56,35362405;37,51055341;8,17000008;
14:11:34:783;0,0011;0,0420;-0,0036;56,35362405;37,51055341;8,17000008;
14:11:34:785;-0,0643;0,0411;-0,2069;56,35362405;37,51055341;8,17000008;
14:11:34:840;-0,0643;0,0411;-0,2069;56,35362405;37,51055341;8,17000008;
14:11:34:842;-0,0643;0,0411;-0,2069;56,35362405;37,51055341;8,17000008;
14:11:34:846;0,0359;-0,0129;-0,0173;56,35362405;37,51055341;8,17000008;
14:11:34:868;0,0359;-0,0129;-0,0173;56,35362405;37,51055341;8,17000008;
14:11:34:872;0,0311;-0,0114;-0,0153;56,35362405;37,51055341;8,17000008;
14:11:34:923;0,0311;-0,0114;-0,0153;56,35362405;37,51055341;8,17000008;
14:11:34:925;0,0311;-0,0114;-0,0153;56,35362405;37,51055341;8,17000008;
14:11:34:927;0,0042;0,0430;0,2134;56,35362405;37,51055341;8,17000008;
14:11:34:980;0,0042;0,0430;0,2134;56,35362405;37,51055341;8,17000008;
14:11:34:983;-0,0238;0,0519;0,0070;56,35359494;37,51066663;7,94999981;
14:11:34:984;-0,0238;0,0519;0,0070;56,35359494;37,51066663;7,94999981;
14:11:35:040;-0,0238;0,0519;0,0070;56,35359494;37,51066663;7,94999981;
14:11:35:042;-0,0238;0,0519;0,0070;56,35359494;37,51066663;7,94999981;
14:11:35:044;-0,0414;0,0216;0,0931;56,35359494;37,51066663;7,94999981;
14:11:35:102;-0,0414;0,0216;0,0931;56,35359494;37,51066663;7,94999981;
14:11:35:105;-0,0414;0,0216;0,0931;56,35359494;37,51066663;7,94999981;
14:11:35:108;-0,0309;-0,0151;0,0028;56,35359494;37,51066663;7,94999981;
14:11:35:128;-0,0309;-0,0151;0,0028;56,35359494;37,51066663;7,94999981;
14:11:35:181;-0,0309;-0,0151;0,0028;56,35359494;37,51066663;7,94999981;
14:11:35:183;-0,0309;-0,0151;0,0028;56,35359494;37,51066663;7,94999981;
14:11:35:183;0,0619;-0,0031;0,0936;56,35359494;37,51066663;7,94999981;
14:11:35:243;0,0619;-0,0031;0,0936;56,35359494;37,51066663;7,94999981;
14:11:35:245;0,0619;-0,0031;0,0936;56,35359494;37,51066663;7,94999981;
14:11:35:247;-0,0395;0,0222;-0,0765;56,35359494;37,51066663;7,94999981;
14:11:35:303;-0,0395;0,0222;-0,0765;56,35359494;37,51066663;7,94999981;
14:11:35:305;-0,0395;0,0222;-0,0765;56,35359494;37,51066663;7,94999981;
14:11:35:307;0,0145;-0,0193;0,0570;56,35359494;37,51066663;7,94999981;
14:11:35:363;0,0145;-0,0193;0,0570;56,35359494;37,51066663;7,94999981;
14:11:35:366;0,0145;-0,0193;0,0570;56,35359494;37,51066663;7,94999981;
14:11:35:368;-0,0396;-0,0069;0,2301;56,35359494;37,51066663;7,94999981;
14:11:35:443;-0,0396;-0,0069;0,2301;56,35359494;37,51066663;7,94999981;
14:11:35:445;-0,0396;-0,0069;0,2301;56,35359494;37,51066663;7,94999981;
14:11:35:449;-0,0372;-0,0353;0,2184;56,35359494;37,51066663;7,94999981;
14:11:35:504;-0,0372;-0,0353;0,2184;56,35359494;37,51066663;7,94999981;
14:11:35:507;-0,0372;-0,0353;0,2184;56,35359494;37,51066663;7,94999981;
14:11:35:508;-0,0266;-0,0148;0,3270;56,35359494;37,51066663;7,94999981;
14:11:35:565;-0,0266;-0,0148;0,3270;56,35359494;37,51066663;7,94999981;
14:11:35:568;-0,0266;-0,0148;0,3270;56,35359494;37,51066663;7,94999981;
14:11:35:570;0,0387;-0,0530;0,0493;56,35359494;37,51066663;7,94999981;
14:11:35:626;0,0387;-0,0530;0,0493;56,35359494;37,51066663;7,94999981;
14:11:35:629;0,0387;-0,0530;0,0493;56,35359494;37,51066663;7,94999981;
14:11:35:631;0,0534;-0,0382;-0,0452;56,35359494;37,51066663;7,94999981;
14:11:35:650;0,0534;-0,0382;-0,0452;56,35359494;37,51066663;7,94999981;
14:11:35:652;0,0586;-0,0513;-0,0457;56,35359494;37,51066663;7,94999981;
14:11:35:704;0,0586;-0,0513;-0,0457;56,35359494;37,51066663;7,94999981;
14:11:35:706;0,0586;-0,0513;-0,0457;56,35359494;37,51066663;7,94999981;
14:11:35:707;0,0434;-0,0414;0,0751;56,35359494;37,51066663;7,94999981;
14:11:35:765;0,0434;-0,0414;0,0751;56,35359494;37,51066663;7,94999981;
14:11:35:768;0,0434;-0,0414;0,0751;56,35359494;37,51066663;7,94999981;
14:11:35:771;-0,0291;-0,0418;-0,1269;56,35359494;37,51066663;7,94999981;
14:11:35:826;-0,0291;-0,0418;-0,1269;56,35359494;37,51066663;7,94999981;
14:11:35:829;-0,0291;-0,0418;-0,1269;56,35359494;37,51066663;7,94999981;
14:11:35:831;-0,0718;-0,0821;0,0079;56,35359494;37,51066663;7,94999981;
14:11:35:884;-0,0718;-0,0821;0,0079;56,35359494;37,51066663;7,94999981;
14:11:35:886;-0,0718;-0,0821;0,0079;56,35359494;37,51066663;7,94999981;
14:11:35:887;-0,0519;-0,1192;0,0225;56,35359494;37,51066663;7,94999981;
14:11:35:912;-0,0519;-0,1192;0,0225;56,35359494;37,51066663;7,94999981;
14:11:35:965;-0,0519;-0,1192;0,0225;56,35359494;37,51066663;7,94999981;
14:11:35:967;-0,0519;-0,1192;0,0225;56,35357283;37,51077718;6,82999992;
14:11:35:968;0,0084;-0,4277;-0,1153;56,35357283;37,51077718;6,82999992;
14:11:36:025;0,0084;-0,4277;-0,1153;56,35357283;37,51077718;6,82999992;
14:11:36:027;0,0084;-0,4277;-0,1153;56,35357283;37,51077718;6,82999992;
14:11:36:028;0,0007;-0,4653;-0,3358;56,35357283;37,51077718;6,82999992;
14:11:36:087;0,0007;-0,4653;-0,3358;56,35357283;37,51077718;6,82999992;
14:11:36:090;0,0007;-0,4653;-0,3358;56,35357283;37,51077718;6,82999992;
14:11:36:092;0,0111;-0,4709;-0,2547;56,35357283;37,51077718;6,82999992;
14:11:36:147;0,0111;-0,4709;-0,2547;56,35357283;37,51077718;6,82999992;
14:11:36:150;0,0111;-0,4709;-0,2547;56,35357283;37,51077718;6,82999992;
14:11:36:152;0,0414;-0,4504;0,1011;56,35357283;37,51077718;6,82999992;
14:11:36:228;0,0414;-0,4504;0,1011;56,35357283;37,51077718;6,82999992;
14:11:36:231;0,0414;-0,4504;0,1011;56,35357283;37,51077718;6,82999992;
14:11:36:234;0,0235;-0,4344;0,0215;56,35357283;37,51077718;6,82999992;
14:11:36:288;0,0235;-0,4344;0,0215;56,35357283;37,51077718;6,82999992;
14:11:36:291;0,0235;-0,4344;0,0215;56,35357283;37,51077718;6,82999992;
14:11:36:292;0,0470;-0,4711;0,2169;56,35357283;37,51077718;6,82999992;
14:11:36:347;0,0470;-0,4711;0,2169;56,35357283;37,51077718;6,82999992;
14:11:36:350;0,0470;-0,4711;0,2169;56,35357283;37,51077718;6,82999992;
14:11:36:352;0,0585;-0,4495;0,1720;56,35357283;37,51077718;6,82999992;
14:11:36:412;0,0585;-0,4495;0,1720;56,35357283;37,51077718;6,82999992;
14:11:36:415;0,0585;-0,4495;0,1720;56,35357283;37,51077718;6,82999992;
14:11:36:419;-0,0403;-0,3993;0,0706;56,35357283;37,51077718;6,82999992;
14:11:36:435;-0,0403;-0,3993;0,0706;56,35357283;37,51077718;6,82999992;
14:11:36:439;-0,0482;-0,3705;0,0624;56,35357283;37,51077718;6,82999992;
14:11:36:491;0,0328;-0,2830;-0,0569;56,35357283;37,51077718;6,82999992;
14:11:36:494;0,0328;-0,2830;-0,0569;56,35357283;37,51077718;6,82999992;
14:11:36:496;0,0328;-0,2830;-0,0569;56,35357283;37,51077718;6,82999992;
14:11:36:548;0,0328;-0,2830;-0,0569;56,35357283;37,51077718;6,82999992;
14:11:36:550;0,0328;-0,2830;-0,0569;56,35357283;37,51077718;6,82999992;
14:11:36:551;0,0345;-0,2687;-0,2894;56,35357283;37,51077718;6,82999992;
14:11:36:608;0,0345;-0,2687;-0,2894;56,35357283;37,51077718;6,82999992;
14:11:36:610;0,0345;-0,2687;-0,2894;56,35357283;37,51077718;6,82999992;
14:11:36:610;0,0846;-0,2429;-0,2789;56,35357283;37,51077718;6,82999992;
14:11:36:670;0,0846;-0,2429;-0,2789;56,35357283;37,51077718;6,82999992;
14:11:36:673;0,0846;-0,2429;-0,2789;56,35357283;37,51077718;6,82999992;
14:11:36:674;0,1017;-0,2979;-0,0919;56,35357283;37,51077718;6,82999992;
14:11:36:698;0,1017;-0,2979;-0,0919;56,35357283;37,51077718;6,82999992;
14:11:36:750;0,1017;-0,2979;-0,0919;56,35357283;37,51077718;6,82999992;
14:11:36:754;0,1017;-0,2979;-0,0919;56,35357283;37,51077718;6,82999992;
14:11:36:756;-0,0690;-0,2716;0,2373;56,35357283;37,51077718;6,82999992;
14:11:36:811;-0,0690;-0,2716;0,2373;56,35357283;37,51077718;6,82999992;
14:11:36:814;-0,0690;-0,2716;0,2373;56,35357283;37,51077718;6,82999992;
14:11:36:816;-0,0894;-0,2526;0,0354;56,35357283;37,51077718;6,82999992;
14:11:36:870;-0,0894;-0,2526;0,0354;56,35357283;37,51077718;6,82999992;
14:11:36:872;-0,0894;-0,2526;0,0354;56,35357283;37,51077718;6,82999992;
14:11:36:873;-0,0503;-0,2161;-0,1638;56,35357283;37,51077718;6,82999992;
14:11:36:930;-0,0503;-0,2161;-0,1638;56,35357283;37,51077718;6,82999992;
14:11:36:932;-0,0503;-0,2161;-0,1638;56,35357283;37,51077718;6,82999992;
14:11:36:933;0,0243;-0,2357;-0,2881;56,35357283;37,51077718;6,82999992;
14:11:37:011;0,0243;-0,2357;-0,2881;56,35357283;37,51077718;6,82999992;
14:11:37:012;0,0243;-0,2357;-0,2881;56,35355459;37,51088614;6,80000019;
14:11:37:014;0,2282;-0,4122;0,2451;56,35355459;37,51088614;6,80000019;
14:11:37:073;0,2282;-0,4122;0,2451;56,35355459;37,51088614;6,80000019;
14:11:37:076;0,2282;-0,4122;0,2451;56,35355459;37,51088614;6,80000019;
14:11:37:078;0,0412;-0,1555;-0,3807;56,35355459;37,51088614;6,80000019;
14:11:37:132;0,0412;-0,1555;-0,3807;56,35355459;37,51088614;6,80000019;
14:11:37:136;0,0412;-0,1555;-0,3807;56,35355459;37,51088614;6,80000019;
14:11:37:138;-0,1742;-0,1201;-0,3063;56,35355459;37,51088614;6,80000019;
14:11:37:193;-0,1742;-0,1201;-0,3063;56,35355459;37,51088614;6,80000019;
14:11:37:196;-0,1742;-0,1201;-0,3063;56,35355459;37,51088614;6,80000019;
14:11:37:198;-0,2721;-0,2036;0,1003;56,35355459;37,51088614;6,80000019;
14:11:37:222;-0,2721;-0,2036;0,1003;56,35355459;37,51088614;6,80000019;
14:11:37:224;-0,2735;-0,1943;0,0996;56,35355459;37,51088614;6,80000019;
14:11:37:274;-0,2735;-0,1943;0,0996;56,35355459;37,51088614;6,80000019;
14:11:37:276;-0,2735;-0,1943;0,0996;56,35355459;37,51088614;6,80000019;
14:11:37:278;-0,0353;-0,2962;0,1030;56,35355459;37,51088614;6,80000019;
14:11:37:334;-0,0353;-0,2962;0,1030;56,35355459;37,51088614;6,80000019;
14:11:37:337;-0,0353;-0,2962;0,1030;56,35355459;37,51088614;6,80000019;
14:11:37:340;0,2292;-0,2228;0,2081;56,35355459;37,51088614;6,80000019;
14:11:37:395;0,2292;-0,2228;0,2081;56,35355459;37,51088614;6,80000019;
14:11:37:397;0,2292;-0,2228;0,2081;56,35355459;37,51088614;6,80000019;
14:11:37:399;-0,0097;-0,3692;0,1913;56,35355459;37,51088614;6,80000019;
14:11:37:454;-0,0097;-0,3692;0,1913;56,35355459;37,51088614;6,80000019;
14:11:37:457;-0,0097;-0,3692;0,1913;56,35355459;37,51088614;6,80000019;
14:11:37:459;0,0872;-0,1057;-0,0683;56,35355459;37,51088614;6,80000019;
14:11:37:483;0,0872;-0,1057;-0,0683;56,35355459;37,51088614;6,80000019;
14:11:37:535;0,0872;-0,1057;-0,0683;56,35355459;37,51088614;6,80000019;
14:11:37:538;0,0872;-0,1057;-0,0683;56,35355459;37,51088614;6,80000019;
14:11:37:540;-0,1603;-0,1941;-0,3441;56,35355459;37,51088614;6,80000019;
14:11:37:595;-0,1603;-0,1941;-0,3441;56,35355459;37,51088614;6,80000019;
14:11:37:598;-0,1603;-0,1941;-0,3441;56,35355459;37,51088614;6,80000019;
14:11:37:600;0,1818;-0,2362;-0,2258;56,35355459;37,51088614;6,80000019;
14:11:37:655;0,1818;-0,2362;-0,2258;56,35355459;37,51088614;6,80000019;
14:11:37:658;0,1818;-0,2362;-0,2258;56,35355459;37,51088614;6,80000019;
14:11:37:660;0,0741;-0,2549;0,0198;56,35355459;37,51088614;6,80000019;
14:11:37:715;0,0741;-0,2549;0,0198;56,35355459;37,51088614;6,80000019;
14:11:37:718;0,0741;-0,2549;0,0198;56,35355459;37,51088614;6,80000019;
14:11:37:721;0,0165;-0,3367;0,2137;56,35355459;37,51088614;6,80000019;
14:11:37:796;0,0165;-0,3367;0,2137;56,35355459;37,51088614;6,80000019;
14:11:37:800;0,0165;-0,3367;0,2137;56,35355459;37,51088614;6,80000019;
14:11:37:802;-0,0177;-0,4084;0,0507;56,35355459;37,51088614;6,80000019;
14:11:37:856;-0,0177;-0,4084;0,0507;56,35355459;37,51088614;6,80000019;
14:11:37:859;-0,0177;-0,4084;0,0507;56,35355459;37,51088614;6,80000019;
14:11:37:861;0,0348;-0,5276;0,1825;56,35355459;37,51088614;6,80000019;
14:11:37:918;0,0348;-0,5276;0,1825;56,35355459;37,51088614;6,80000019;
14:11:37:921;0,0348;-0,5276;0,1825;56,35355459;37,51088614;6,80000019;
14:11:37:922;0,0481;-0,6083;0,0159;56,35355459;37,51088614;6,80000019;
14:11:37:976;0,0481;-0,6083;0,0159;56,35355459;37,51088614;6,80000019;
14:11:37:978;0,0481;-0,6083;0,0159;56,35353520;37,51098820;6,61000013;
14:11:37:981;0,0106;-0,6922;-0,1653;56,35353520;37,51098820;6,61000013;
14:11:38:005;0,0106;-0,6922;-0,1653;56,35353520;37,51098820;6,61000013;
14:11:38:007;0,0129;-0,6846;-0,1631;56,35353520;37,51098820;6,61000013;
14:11:38:056;0,0129;-0,6846;-0,1631;56,35353520;37,51098820;6,61000013;
14:11:38:058;0,0129;-0,6846;-0,1631;56,35353520;37,51098820;6,61000013;
14:11:38:059;0,0655;-0,7418;-0,2708;56,35353520;37,51098820;6,61000013;
14:11:38:117;0,0655;-0,7418;-0,2708;56,35353520;37,51098820;6,61000013;
14:11:38:119;0,0655;-0,7418;-0,2708;56,35353520;37,51098820;6,61000013;
14:11:38:121;0,1015;-0,8220;-0,1174;56,35353520;37,51098820;6,61000013;
14:11:38:178;0,1015;-0,8220;-0,1174;56,35353520;37,51098820;6,61000013;
14:11:38:180;0,1015;-0,8220;-0,1174;56,35353520;37,51098820;6,61000013;
14:11:38:181;0,1009;-0,8276;0,0937;56,35353520;37,51098820;6,61000013;
14:11:38:237;0,1009;-0,8276;0,0937;56,35353520;37,51098820;6,61000013;
14:11:38:239;0,1009;-0,8276;0,0937;56,35353520;37,51098820;6,61000013;
14:11:38:240;0,1381;-0,8204;0,1233;56,35353520;37,51098820;6,61000013;
14:11:38:265;0,1381;-0,8204;0,1233;56,35353520;37,51098820;6,61000013;
14:11:38:318;0,1381;-0,8204;0,1233;56,35353520;37,51098820;6,61000013;
14:11:38:320;0,1381;-0,8204;0,1233;56,35353520;37,51098820;6,61000013;
14:11:38:322;-0,0801;-0,7608;-0,0469;56,35353520;37,51098820;6,61000013;
14:11:38:379;-0,0801;-0,7608;-0,0469;56,35353520;37,51098820;6,61000013;
14:11:38:381;-0,0801;-0,7608;-0,0469;56,35353520;37,51098820;6,61000013;
14:11:38:383;-0,0061;-0,7086;-0,1515;56,35353520;37,51098820;6,61000013;
14:11:38:439;-0,0061;-0,7086;-0,1515;56,35353520;37,51098820;6,61000013;
14:11:38:442;-0,0061;-0,7086;-0,1515;56,35353520;37,51098820;6,61000013;
14:11:38:444;0,0048;-0,7731;0,0147;56,35353520;37,51098820;6,61000013;
14:11:38:500;0,0534;-0,6271;-0,0351;56,35353520;37,51098820;6,61000013;
14:11:38:504;0,0534;-0,6271;-0,0351;56,35353520;37,51098820;6,61000013;
14:11:38:505;0,0534;-0,6271;-0,0351;56,35353520;37,51098820;6,61000013;
14:11:38:590;0,0534;-0,6271;-0,0351;56,35353520;37,51098820;6,61000013;
14:11:38:592;0,0534;-0,6271;-0,0351;56,35353520;37,51098820;6,61000013;
14:11:38:594;0,1063;-0,5039;0,0341;56,35353520;37,51098820;6,61000013;
14:11:38:650;0,1063;-0,5039;0,0341;56,35353520;37,51098820;6,61000013;
14:11:38:653;0,1063;-0,5039;0,0341;56,35353520;37,51098820;6,61000013;
14:11:38:656;0,0785;-0,5593;0,0860;56,35353520;37,51098820;6,61000013;
14:11:38:710;0,0785;-0,5593;0,0860;56,35353520;37,51098820;6,61000013;
14:11:38:712;0,0785;-0,5593;0,0860;56,35353520;37,51098820;6,61000013;
14:11:38:713;-0,1214;-0,4229;0,0850;56,35353520;37,51098820;6,61000013;
14:11:38:771;-0,1214;-0,4229;0,0850;56,35353520;37,51098820;6,61000013;
14:11:38:773;-0,1214;-0,4229;0,0850;56,35353520;37,51098820;6,61000013;
14:11:38:775;-0,0733;-0,3494;-0,0005;56,35353520;37,51098820;6,61000013;
14:11:38:794;-0,0733;-0,3494;-0,0005;56,35353520;37,51098820;6,61000013;
14:11:38:796;-0,0662;-0,3132;-0,0008;56,35353520;37,51098820;6,61000013;
14:11:38:852;-0,0662;-0,3132;-0,0008;56,35353520;37,51098820;6,61000013;
14:11:38:854;-0,0662;-0,3132;-0,0008;56,35353520;37,51098820;6,61000013;
14:11:38:856;-0,0453;-0,2925;-0,0552;56,35353520;37,51098820;6,61000013;
14:11:38:912;-0,0453;-0,2925;-0,0552;56,35353520;37,51098820;6,61000013;
14:11:38:914;-0,0453;-0,2925;-0,0552;56,35353520;37,51098820;6,61000013;
14:11:38:916;0,0253;-0,3106;-0,1387;56,35353520;37,51098820;6,61000013;
14:11:38:970;0,0253;-0,3106;-0,1387;56,35353520;37,51098820;6,61000013;
14:11:38:972;0,0253;-0,3106;-0,1387;56,35351896;37,51106480;5,36000013;
14:11:38:974;0,1411;-0,3414;-0,0357;56,35351896;37,51106480;5,36000013;
14:11:39:031;0,1411;-0,3414;-0,0357;56,35351896;37,51106480;5,36000013;
14:11:39:033;0,1411;-0,3414;-0,0357;56,35351896;37,51106480;5,36000013;
14:11:39:034;0,0577;-0,3714;-0,0897;56,35351896;37,51106480;5,36000013;
14:11:39:050;0,0577;-0,3714;-0,0897;56,35351896;37,51106480;5,36000013;
14:11:39:113;0,0577;-0,3714;-0,0897;56,35351896;37,51106480;5,36000013;
14:11:39:115;0,0577;-0,3714;-0,0897;56,35351896;37,51106480;5,36000013;
14:11:39:119;-0,1161;-0,5028;0,2461;56,35351896;37,51106480;5,36000013;
14:11:39:172;-0,1161;-0,5028;0,2461;56,35351896;37,51106480;5,36000013;
14:11:39:173;-0,1161;-0,5028;0,2461;56,35351896;37,51106480;5,36000013;
14:11:39:175;-0,0706;-0,5069;0,1686;56,35351896;37,51106480;5,36000013;
14:11:39:246;-0,0706;-0,5069;0,1686;56,35351896;37,51106480;5,36000013;
14:11:39:248;-0,0706;-0,5069;0,1686;56,35351896;37,51106480;5,36000013;
14:11:39:249;-0,1531;-0,4545;0,1190;56,35351896;37,51106480;5,36000013;
14:11:39:292;-0,1531;-0,4545;0,1190;56,35351896;37,51106480;5,36000013;
14:11:39:293;-0,1531;-0,4545;0,1190;56,35351896;37,51106480;5,36000013;
14:11:39:296;-0,1705;-0,4117;-0,0276;56,35351896;37,51106480;5,36000013;
14:11:39:372;-0,1705;-0,4117;-0,0276;56,35351896;37,51106480;5,36000013;
14:11:39:374;-0,1705;-0,4117;-0,0276;56,35351896;37,51106480;5,36000013;
14:11:39:376;0,0799;-0,4320;-0,2136;56,35351896;37,51106480;5,36000013;
14:11:39:425;0,0799;-0,4320;-0,2136;56,35351896;37,51106480;5,36000013;
14:11:39:427;0,0799;-0,4320;-0,2136;56,35351896;37,51106480;5,36000013;
14:11:39:429;0,1505;-0,4418;-0,1667;56,35351896;37,51106480;5,36000013;
14:11:39:485;0,1505;-0,4418;-0,1667;56,35351896;37,51106480;5,36000013;
14:11:39:487;0,1505;-0,4418;-0,1667;56,35351896;37,51106480;5,36000013;
14:11:39:489;0,2339;-0,4022;-0,0377;56,35351896;37,51106480;5,36000013;
14:11:39:545;0,2339;-0,4022;-0,0377;56,35351896;37,51106480;5,36000013;
14:11:39:547;0,2339;-0,4022;-0,0377;56,35351896;37,51106480;5,36000013;
14:11:39:549;0,0513;-0,2949;0,0289;56,35351896;37,51106480;5,36000013;
14:11:39:575;0,0513;-0,2949;0,0289;56,35351896;37,51106480;5,36000013;
14:11:39:576;0,0530;-0,2925;0,0278;56,35351896;37,51106480;5,36000013;
14:11:39:636;0,0530;-0,2925;0,0278;56,35351896;37,51106480;5,36000013;
14:11:39:638;0,0530;-0,2925;0,0278;56,35351896;37,51106480;5,36000013;
14:11:39:640;-0,1536;-0,0779;0,0827;56,35351896;37,51106480;5,36000013;
14:11:39:695;-0,1536;-0,0779;0,0827;56,35351896;37,51106480;5,36000013;
14:11:39:696;-0,1536;-0,0779;0,0827;56,35351896;37,51106480;5,36000013;
14:11:39:697;-0,0563;0,2418;0,1014;56,35351896;37,51106480;5,36000013;
14:11:39:756;-0,0563;0,2418;0,1014;56,35351896;37,51106480;5,36000013;
14:11:39:758;-0,0563;0,2418;0,1014;56,35351896;37,51106480;5,36000013;
14:11:39:760;0,0549;0,6334;0,0490;56,35351896;37,51106480;5,36000013;
14:11:39:817;0,0549;0,6334;0,0490;56,35351896;37,51106480;5,36000013;
14:11:39:820;0,0549;0,6334;0,0490;56,35351896;37,51106480;5,36000013;
14:11:39:821;0,0424;0,8827;0,1106;56,35351896;37,51106480;5,36000013;
14:11:39:844;0,0424;0,8827;0,1106;56,35351896;37,51106480;5,36000013;
14:11:39:884;0,0063;0,9903;-0,0042;56,35351896;37,51106480;5,36000013;
14:11:39:887;0,0063;0,9903;-0,0042;56,35351896;37,51106480;5,36000013;
14:11:39:942;0,0492;1,1601;-0,0873;56,35351896;37,51106480;5,36000013;
14:11:39:943;0,0492;1,1601;-0,0873;56,35350464;37,51112029;3,96000004;
14:11:39:945;0,0492;1,1601;-0,0873;56,35350464;37,51112029;3,96000004;
14:11:39:997;0,0492;1,1601;-0,0873;56,35350464;37,51112029;3,96000004;
14:11:39:999;0,0492;1,1601;-0,0873;56,35350464;37,51112029;3,96000004;
14:11:40:000;0,1437;1,1059;-0,1271;56,35350464;37,51112029;3,96000004;
14:11:40:056;0,1437;1,1059;-0,1271;56,35350464;37,51112029;3,96000004;
14:11:40:058;0,1437;1,1059;-0,1271;56,35350464;37,51112029;3,96000004;
14:11:40:059;0,1833;1,0443;0,2749;56,35350464;37,51112029;3,96000004;
14:11:40:098;0,1833;1,0443;0,2749;56,35350464;37,51112029;3,96000004;
14:11:40:160;0,1833;1,0443;0,2749;56,35350464;37,51112029;3,96000004;
14:11:40:163;0,1833;1,0443;0,2749;56,35350464;37,51112029;3,96000004;
14:11:40:166;-0,3369;1,1052;-0,1058;56,35350464;37,51112029;3,96000004;
14:11:40:220;-0,3369;1,1052;-0,1058;56,35350464;37,51112029;3,96000004;
14:11:40:223;-0,3369;1,1052;-0,1058;56,35350464;37,51112029;3,96000004;
14:11:40:225;0,0102;1,1795;-0,1730;56,35350464;37,51112029;3,96000004;
14:11:40:279;0,0102;1,1795;-0,1730;56,35350464;37,51112029;3,96000004;
14:11:40:281;0,2797;1,0484;0,0894;56,35350464;37,51112029;3,96000004;
14:11:40:283;0,2797;1,0484;0,0894;56,35350464;37,51112029;3,96000004;
14:11:40:338;0,2797;1,0484;0,0894;56,35350464;37,51112029;3,96000004;
14:11:40:341;0,2797;1,0484;0,0894;56,35350464;37,51112029;3,96000004;
14:11:40:342;0,0380;1,0536;0,1846;56,35350464;37,51112029;3,96000004;
14:11:40:362;0,0380;1,0536;0,1846;56,35350464;37,51112029;3,96000004;
14:11:40:364;0,0404;1,0393;0,1819;56,35350464;37,51112029;3,96000004;
14:11:40:396;0,0404;1,0393;0,1819;56,35350464;37,51112029;3,96000004;
14:11:40:450;0,0404;1,0393;0,1819;56,35350464;37,51112029;3,96000004;
14:11:40:453;0,0404;1,0393;0,1819;56,35350464;37,51112029;3,96000004;
14:11:40:454;-0,0946;0,6665;0,5541;56,35350464;37,51112029;3,96000004;
14:11:40:511;-0,0946;0,6665;0,5541;56,35350464;37,51112029;3,96000004;
14:11:40:514;-0,0946;0,6665;0,5541;56,35350464;37,51112029;3,96000004;
14:11:40:515;-0,2928;1,1622;-0,1234;56,35350464;37,51112029;3,96000004;
14:11:40:572;-0,2928;1,1622;-0,1234;56,35350464;37,51112029;3,96000004;
14:11:40:575;-0,2928;1,1622;-0,1234;56,35350464;37,51112029;3,96000004;
14:11:40:577;-0,4600;1,2166;-0,6947;56,35350464;37,51112029;3,96000004;
14:11:40:622;-0,4600;1,2166;-0,6947;56,35350464;37,51112029;3,96000004;
14:11:40:623;-0,4600;1,2166;-0,6947;56,35350464;37,51112029;3,96000004;
14:11:40:624;0,3538;1,0708;-0,7888;56,35350464;37,51112029;3,96000004;
14:11:40:683;0,3538;1,0708;-0,7888;56,35350464;37,51112029;3,96000004;
14:11:40:686;0,3538;1,0708;-0,7888;56,35350464;37,51112029;3,96000004;
14:11:40:688;1,2252;1,0239;-0,6799;56,35350464;37,51112029;3,96000004;
14:11:40:742;1,2252;1,0239;-0,6799;56,35350464;37,51112029;3,96000004;
14:11:40:745;1,2252;1,0239;-0,6799;56,35350464;37,51112029;3,96000004;
14:11:40:747;0,5569;0,8650;0,5727;56,35350464;37,51112029;3,96000004;
14:11:40:802;0,5569;0,8650;0,5727;56,35350464;37,51112029;3,96000004;
14:11:40:805;0,5569;0,8650;0,5727;56,35350464;37,51112029;3,96000004;
14:11:40:807;-0,3309;0,9695;0,7307;56,35350464;37,51112029;3,96000004;
14:11:40:862;-0,3309;0,9695;0,7307;56,35350464;37,51112029;3,96000004;
14:11:40:865;-0,3309;0,9695;0,7307;56,35350464;37,51112029;3,96000004;
14:11:40:867;-0,6601;1,0105;0,5602;56,35350464;37,51112029;3,96000004;
14:11:40:908;-0,6601;1,0105;0,5602;56,35350464;37,51112029;3,96000004;
14:11:40:912;-0,6352;0,9961;0,5505;56,35350464;37,51112029;3,96000004;
14:11:40:962;-0,6352;0,9961;0,5505;56,35350464;37,51112029;3,96000004;
14:11:40:963;-0,6352;0,9961;0,5505;56,35349489;37,51116459;3,24000001;
14:11:40:964;-0,7906;1,2533;-0,5882;56,35349489;37,51116459;3,24000001;
14:11:41:022;-0,7906;1,2533;-0,5882;56,35349489;37,51116459;3,24000001;
14:11:41:024;-0,7906;1,2533;-0,5882;56,35349489;37,51116459;3,24000001;
14:11:41:025;-0,5459;1,0427;-0,4885;56,35349489;37,51116459;3,24000001;
14:11:41:084;-0,5459;1,0427;-0,4885;56,35349489;37,51116459;3,24000001;
14:11:41:086;-0,5459;1,0427;-0,4885;56,35349489;37,51116459;3,24000001;
14:11:41:089;-0,0736;0,9089;0,0932;56,35349489;37,51116459;3,24000001;
14:11:41:147;-0,0736;0,9089;0,0932;56,35349489;37,51116459;3,24000001;
14:11:41:152;-0,0736;0,9089;0,0932;56,35349489;37,51116459;3,24000001;
14:11:41:154;0,6148;1,0469;-0,1685;56,35349489;37,51116459;3,24000001;
14:11:41:203;0,6148;1,0469;-0,1685;56,35349489;37,51116459;3,24000001;
14:11:41:205;0,6148;1,0469;-0,1685;56,35349489;37,51116459;3,24000001;
14:11:41:206;0,6780;1,0385;-0,5939;56,35349489;37,51116459;3,24000001;
14:11:41:264;0,6780;1,0385;-0,5939;56,35349489;37,51116459;3,24000001;
14:11:41:267;0,6780;1,0385;-0,5939;56,35349489;37,51116459;3,24000001;
14:11:41:269;0,7555;0,8248;0,4449;56,35349489;37,51116459;3,24000001;
14:11:41:324;0,7555;0,8248;0,4449;56,35349489;37,51116459;3,24000001;
14:11:41:325;0,7555;0,8248;0,4449;56,35349489;37,51116459;3,24000001;
14:11:41:326;-0,2891;0,9853;0,3677;56,35349489;37,51116459;3,24000001;
14:11:41:386;-0,2891;0,9853;0,3677;56,35349489;37,51116459;3,24000001;
14:11:41:388;-0,2891;0,9853;0,3677;56,35349489;37,51116459;3,24000001;
14:11:41:390;-0,7287;0,6998;0,8791;56,35349489;37,51116459;3,24000001;
14:11:41:408;-0,7287;0,6998;0,8791;56,35349489;37,51116459;3,24000001;
14:11:41:475;-0,7287;0,6998;0,8791;56,35349489;37,51116459;3,24000001;
14:11:41:477;-0,7287;0,6998;0,8791;56,35349489;37,51116459;3,24000001;
14:11:41:480;-0,3631;0,7693;1,1239;56,35349489;37,51116459;3,24000001;
14:11:41:536;-0,3631;0,7693;1,1239;56,35349489;37,51116459;3,24000001;
14:11:41:539;-0,3631;0,7693;1,1239;56,35349489;37,51116459;3,24000001;
14:11:41:541;-0,4440;1,1354;-0,4777;56,35349489;37,51116459;3,24000001;
14:11:41:597;-0,4440;1,1354;-0,4777;56,35349489;37,51116459;3,24000001;
14:11:41:600;-0,4440;1,1354;-0,4777;56,35349489;37,51116459;3,24000001;
14:11:41:602;0,2803;0,7905;-1,7747;56,35349489;37,51116459;3,24000001;
14:11:41:657;0,2803;0,7905;-1,7747;56,35349489;37,51116459;3,24000001;
14:11:41:660;0,2803;0,7905;-1,7747;56,35349489;37,51116459;3,24000001;
14:11:41:661;0,8790;0,8327;-0,7217;56,35349489;37,51116459;3,24000001;
14:11:41:727;0,8790;0,8327;-0,7217;56,35349489;37,51116459;3,24000001;
14:11:41:730;0,8790;0,8327;-0,7217;56,35349489;37,51116459;3,24000001;
14:11:41:732;0,1391;1,1313;-0,6516;56,35349489;37,51116459;3,24000001;
14:11:41:787;0,1391;1,1313;-0,6516;56,35349489;37,51116459;3,24000001;
14:11:41:789;0,1391;1,1313;-0,6516;56,35349489;37,51116459;3,24000001;
14:11:41:791;-0,5027;0,8684;-0,1296;56,35349489;37,51116459;3,24000001;
14:11:41:847;-0,5027;0,8684;-0,1296;56,35349489;37,51116459;3,24000001;
14:11:41:850;-0,5027;0,8684;-0,1296;56,35349489;37,51116459;3,24000001;
14:11:41:853;0,0347;0,8344;0,1694;56,35349489;37,51116459;3,24000001;
14:11:41:909;0,0347;0,8344;0,1694;56,35349489;37,51116459;3,24000001;
14:11:41:912;0,0347;0,8344;0,1694;56,35349489;37,51116459;3,24000001;
14:11:41:914;0,2308;0,8926;0,2646;56,35349489;37,51116459;3,24000001;
14:11:41:932;0,2308;0,8926;0,2646;56,35349489;37,51116459;3,24000001;
14:11:41:935;0,2446;0,8503;0,2558;56,35349489;37,51116459;3,24000001;
14:11:41:987;0,2446;0,8503;0,2558;56,35349489;37,51116459;3,24000001;
14:11:41:988;0,2446;0,8503;0,2558;56,35348082;37,51121231;3,18000007;
14:11:41:990;0,1484;0,6597;0,2849;56,35348082;37,51121231;3,18000007;
14:11:42:048;0,1484;0,6597;0,2849;56,35348082;37,51121231;3,18000007;
14:11:42:050;0,1484;0,6597;0,2849;56,35348082;37,51121231;3,18000007;
14:11:42:052;-0,0585;0,6337;0,8096;56,35348082;37,51121231;3,18000007;
14:11:42:109;-0,0585;0,6337;0,8096;56,35348082;37,51121231;3,18000007;
14:11:42:112;-0,0585;0,6337;0,8096;56,35348082;37,51121231;3,18000007;
14:11:42:115;-0,1558;0,5853;0,4760;56,35348082;37,51121231;3,18000007;
14:11:42:170;-0,1558;0,5853;0,4760;56,35348082;37,51121231;3,18000007;
14:11:42:174;-0,1558;0,5853;0,4760;56,35348082;37,51121231;3,18000007;
14:11:42:177;-0,2144;0,4420;0,8336;56,35348082;37,51121231;3,18000007;
14:11:42:200;-0,2144;0,4420;0,8336;56,35348082;37,51121231;3,18000007;
14:11:42:250;-0,2144;0,4420;0,8336;56,35348082;37,51121231;3,18000007;
14:11:42:253;-0,2144;0,4420;0,8336;56,35348082;37,51121231;3,18000007;
14:11:42:255;-0,1974;0,4047;-0,1566;56,35348082;37,51121231;3,18000007;
14:11:42:312;-0,1974;0,4047;-0,1566;56,35348082;37,51121231;3,18000007;
14:11:42:314;-0,1974;0,4047;-0,1566;56,35348082;37,51121231;3,18000007;
14:11:42:316;0,0136;0,8225;-1,2866;56,35348082;37,51121231;3,18000007;
14:11:42:371;0,0136;0,8225;-1,2866;56,35348082;37,51121231;3,18000007;
14:11:42:374;0,0136;0,8225;-1,2866;56,35348082;37,51121231;3,18000007;
14:11:42:376;0,7895;0,5746;-1,3361;56,35348082;37,51121231;3,18000007;
14:11:42:430;0,7895;0,5746;-1,3361;56,35348082;37,51121231;3,18000007;
14:11:42:433;0,7895;0,5746;-1,3361;56,35348082;37,51121231;3,18000007;
14:11:42:435;0,1308;0,6142;-0,6274;56,35348082;37,51121231;3,18000007;
14:11:42:513;0,1308;0,6142;-0,6274;56,35348082;37,51121231;3,18000007;
14:11:42:516;0,1308;0,6142;-0,6274;56,35348082;37,51121231;3,18000007;
14:11:42:518;-0,3941;0,7625;-0,1722;56,35348082;37,51121231;3,18000007;
14:11:42:572;-0,3941;0,7625;-0,1722;56,35348082;37,51121231;3,18000007;
14:11:42:575;-0,3941;0,7625;-0,1722;56,35348082;37,51121231;3,18000007;
14:11:42:578;-0,0688;0,6794;0,3366;56,35348082;37,51121231;3,18000007;
14:11:42:633;0,0541;0,6491;0,8609;56,35348082;37,51121231;3,18000007;
14:11:42:637;0,0541;0,6491;0,8609;56,35348082;37,51121231;3,18000007;
14:11:42:639;0,0541;0,6491;0,8609;56,35348082;37,51121231;3,18000007;
14:11:42:693;0,0541;0,6491;0,8609;56,35348082;37,51121231;3,18000007;
14:11:42:696;0,0541;0,6491;0,8609;56,35348082;37,51121231;3,18000007;
14:11:42:697;-0,0028;0,5865;0,9151;56,35348082;37,51121231;3,18000007;
14:11:42:717;-0,0078;0,5950;0,9020;56,35348082;37,51121231;3,18000007;
14:11:42:720;-0,0078;0,5950;0,9020;56,35348082;37,51121231;3,18000007;
14:11:42:772;-0,0704;0,5991;0,5978;56,35348082;37,51121231;3,18000007;
14:11:42:775;-0,0704;0,5991;0,5978;56,35348082;37,51121231;3,18000007;
14:11:42:776;-0,0704;0,5991;0,5978;56,35348082;37,51121231;3,18000007;
14:11:42:832;-0,0704;0,5991;0,5978;56,35348082;37,51121231;3,18000007;
14:11:42:834;-0,0704;0,5991;0,5978;56,35348082;37,51121231;3,18000007;
14:11:42:835;0,1514;0,6430;0,0695;56,35348082;37,51121231;3,18000007;
14:11:42:893;0,1514;0,6430;0,0695;56,35348082;37,51121231;3,18000007;
14:11:42:896;0,1514;0,6430;0,0695;56,35348082;37,51121231;3,18000007;
14:11:42:898;0,1083;0,5879;-0,2938;56,35348082;37,51121231;3,18000007;
14:11:42:952;0,1083;0,5879;-0,2938;56,35348082;37,51121231;3,18000007;
14:11:42:953;0,1083;0,5879;-0,2938;56,35346268;37,51127490;3,46000004;
14:11:42:955;-0,0430;0,6271;-0,3483;56,35346268;37,51127490;3,46000004;
14:11:42:980;-0,0430;0,6271;-0,3483;56,35346268;37,51127490;3,46000004;
14:11:43:033;-0,0430;0,6271;-0,3483;56,35346268;37,51127490;3,46000004;
14:11:43:036;-0,0430;0,6271;-0,3483;56,35346268;37,51127490;3,46000004;
14:11:43:037;-0,1092;1,8345;0,0268;56,35346268;37,51127490;3,46000004;
14:11:43:095;-0,1092;1,8345;0,0268;56,35346268;37,51127490;3,46000004;
14:11:43:097;-0,1092;1,8345;0,0268;56,35346268;37,51127490;3,46000004;
14:11:43:100;-0,0312;2,1451;0,0515;56,35346268;37,51127490;3,46000004;
14:11:43:155;-0,0312;2,1451;0,0515;56,35346268;37,51127490;3,46000004;
14:11:43:158;-0,0312;2,1451;0,0515;56,35346268;37,51127490;3,46000004;
14:11:43:160;0,0021;1,9161;0,1634;56,35346268;37,51127490;3,46000004;
14:11:43:214;0,0021;1,9161;0,1634;56,35346268;37,51127490;3,46000004;
14:11:43:217;0,0021;1,9161;0,1634;56,35346268;37,51127490;3,46000004;
14:11:43:219;0,0087;1,5449;0,1327;56,35346268;37,51127490;3,46000004;
14:11:43:296;0,0087;1,5449;0,1327;56,35346268;37,51127490;3,46000004;
14:11:43:300;0,0087;1,5449;0,1327;56,35346268;37,51127490;3,46000004;
14:11:43:302;-0,0395;1,3168;-0,0175;56,35346268;37,51127490;3,46000004;
14:11:43:357;-0,0395;1,3168;-0,0175;56,35346268;37,51127490;3,46000004;
14:11:43:360;-0,0395;1,3168;-0,0175;56,35346268;37,51127490;3,46000004;
14:11:43:362;0,0369;1,1717;-0,0346;56,35346268;37,51127490;3,46000004;
14:11:43:417;0,0369;1,1717;-0,0346;56,35346268;37,51127490;3,46000004;
14:11:43:422;0,0369;1,1717;-0,0346;56,35346268;37,51127490;3,46000004;
14:11:43:425;-0,0171;1,2264;-0,1190;56,35346268;37,51127490;3,46000004;
14:11:43:467;-0,0171;1,2264;-0,1190;56,35346268;37,51127490;3,46000004;
14:11:43:471;-0,0171;1,2264;-0,1190;56,35346268;37,51127490;3,46000004;
14:11:43:483;-0,0704;1,2500;-0,0154;56,35346268;37,51127490;3,46000004;
14:11:43:501;-0,0704;1,2500;-0,0154;56,35346268;37,51127490;3,46000004;
14:11:43:504;-0,0638;1,2282;-0,0155;56,35346268;37,51127490;3,46000004;
14:11:43:558;-0,0638;1,2282;-0,0155;56,35346268;37,51127490;3,46000004;
14:11:43:561;-0,0638;1,2282;-0,0155;56,35346268;37,51127490;3,46000004;
14:11:43:563;0,0729;1,1665;0,0487;56,35346268;37,51127490;3,46000004;
14:11:43:620;0,0729;1,1665;0,0487;56,35346268;37,51127490;3,46000004;
14:11:43:623;0,0729;1,1665;0,0487;56,35346268;37,51127490;3,46000004;
14:11:43:626;0,0134;1,0691;0,0119;56,35346268;37,51127490;3,46000004;
14:11:43:678;0,0134;1,0691;0,0119;56,35346268;37,51127490;3,46000004;
14:11:43:681;0,0134;1,0691;0,0119;56,35346268;37,51127490;3,46000004;
14:11:43:683;-0,0821;0,9693;0,0059;56,35346268;37,51127490;3,46000004;
14:11:43:740;-0,0821;0,9693;0,0059;56,35346268;37,51127490;3,46000004;
14:11:43:743;-0,0821;0,9693;0,0059;56,35346268;37,51127490;3,46000004;
14:11:43:745;0,0312;0,8618;0,0573;56,35346268;37,51127490;3,46000004;
14:11:43:766;0,0312;0,8618;0,0573;56,35346268;37,51127490;3,46000004;
14:11:43:819;0,0312;0,8618;0,0573;56,35346268;37,51127490;3,46000004;
14:11:43:822;0,0312;0,8618;0,0573;56,35346268;37,51127490;3,46000004;
14:11:43:825;0,0375;0,6848;-0,0862;56,35346268;37,51127490;3,46000004;
14:11:43:880;0,0375;0,6848;-0,0862;56,35346268;37,51127490;3,46000004;
14:11:43:884;0,0375;0,6848;-0,0862;56,35346268;37,51127490;3,46000004;
14:11:43:886;0,0228;0,5875;-0,0156;56,35346268;37,51127490;3,46000004;
14:11:43:937;0,0228;0,5875;-0,0156;56,35346268;37,51127490;3,46000004;
14:11:43:942;0,0228;0,5875;-0,0156;56,35344315;37,51134345;3,96000004;
14:11:43:944;0,0044;0,3985;0,0169;56,35344315;37,51134345;3,96000004;
14:11:43:977;0,0044;0,3985;0,0169;56,35344315;37,51134345;3,96000004;
14:11:43:978;0,0053;0,3622;0,0150;56,35344315;37,51134345;3,96000004;
14:11:44:024;0,0053;0,3622;0,0150;56,35344315;37,51134345;3,96000004;
14:11:44:079;0,0053;0,3622;0,0150;56,35344315;37,51134345;3,96000004;
14:11:44:081;0,0053;0,3622;0,0150;56,35344315;37,51134345;3,96000004;
14:11:44:083;-0,0936;0,3838;-0,0683;56,35344315;37,51134345;3,96000004;
14:11:44:141;-0,0936;0,3838;-0,0683;56,35344315;37,51134345;3,96000004;
14:11:44:144;-0,0936;0,3838;-0,0683;56,35344315;37,51134345;3,96000004;
14:11:44:146;0,0218;0,4474;0,1887;56,35344315;37,51134345;3,96000004;
14:11:44:200;0,0218;0,4474;0,1887;56,35344315;37,51134345;3,96000004;
14:11:44:204;0,0218;0,4474;0,1887;56,35344315;37,51134345;3,96000004;
14:11:44:207;0,1262;0,4652;0,0577;56,35344315;37,51134345;3,96000004;
14:11:44:261;0,1262;0,4652;0,0577;56,35344315;37,51134345;3,96000004;
14:11:44:265;0,1262;0,4652;0,0577;56,35344315;37,51134345;3,96000004;
14:11:44:267;0,0072;0,4859;-0,0485;56,35344315;37,51134345;3,96000004;
14:11:44:285;0,0060;0,4821;-0,0477;56,35344315;37,51134345;3,96000004;
14:11:44:289;0,0060;0,4821;-0,0477;56,35344315;37,51134345;3,96000004;
14:11:44:342;0,0060;0,4821;-0,0477;56,35344315;37,51134345;3,96000004;
14:11:44:345;-0,0426;0,4927;-0,1356;56,35344315;37,51134345;3,96000004;
14:11:44:348;-0,0426;0,4927;-0,1356;56,35344315;37,51134345;3,96000004;
14:11:44:403;-0,0557;0,4729;-0,1588;56,35344315;37,51134345;3,96000004;
14:11:44:407;-0,0557;0,4729;-0,1588;56,35344315;37,51134345;3,96000004;
14:11:44:409;-0,0557;0,4729;-0,1588;56,35344315;37,51134345;3,96000004;
14:11:44:463;-0,0557;0,4729;-0,1588;56,35344315;37,51134345;3,96000004;
14:11:44:465;-0,0557;0,4729;-0,1588;56,35344315;37,51134345;3,96000004;
14:11:44:468;0,0105;0,4305;-0,1324;56,35344315;37,51134345;3,96000004;
14:11:44:490;0,0105;0,4305;-0,1324;56,35344315;37,51134345;3,96000004;
14:11:44:542;0,0105;0,4305;-0,1324;56,35344315;37,51134345;3,96000004;
14:11:44:545;0,0105;0,4305;-0,1324;56,35344315;37,51134345;3,96000004;
14:11:44:547;0,0059;0,3550;0,1267;56,35344315;37,51134345;3,96000004;
14:11:44:601;0,0059;0,3550;0,1267;56,35344315;37,51134345;3,96000004;
14:11:44:604;-0,0081;0,2832;-0,1226;56,35344315;37,51134345;3,96000004;
14:11:44:606;-0,0081;0,2832;-0,1226;56,35344315;37,51134345;3,96000004;
14:11:44:666;-0,0081;0,2832;-0,1226;56,35344315;37,51134345;3,96000004;
14:11:44:668;-0,0081;0,2832;-0,1226;56,35344315;37,51134345;3,96000004;
14:11:44:670;0,0012;0,2722;-0,0382;56,35344315;37,51134345;3,96000004;
14:11:44:722;0,0012;0,2722;-0,0382;56,35344315;37,51134345;3,96000004;
14:11:44:724;0,0012;0,2722;-0,0382;56,35344315;37,51134345;3,96000004;
14:11:44:725;0,0054;0,2451;-0,0185;56,35344315;37,51134345;3,96000004;
14:11:44:784;0,0054;0,2451;-0,0185;56,35344315;37,51134345;3,96000004;
14:11:44:787;0,0054;0,2451;-0,0185;56,35344315;37,51134345;3,96000004;
14:11:44:789;-0,0661;0,3004;-0,2657;56,35344315;37,51134345;3,96000004;
14:11:44:864;-0,0661;0,3004;-0,2657;56,35344315;37,51134345;3,96000004;
14:11:44:866;-0,0661;0,3004;-0,2657;56,35344315;37,51134345;3,96000004;
14:11:44:870;-0,0556;0,3129;-0,0182;56,35344315;37,51134345;3,96000004;
14:11:44:926;-0,0556;0,3129;-0,0182;56,35344315;37,51134345;3,96000004;
14:11:44:930;-0,0556;0,3129;-0,0182;56,35344315;37,51134345;3,96000004;
14:11:44:932;0,0444;0,3840;0,1955;56,35344315;37,51134345;3,96000004;
14:11:44:983;0,0444;0,3840;0,1955;56,35344315;37,51134345;3,96000004;
14:11:44:985;0,0444;0,3840;0,1955;56,35342841;37,51141221;4,90000010;
14:11:44:987;0,1362;0,3477;0,0976;56,35342841;37,51141221;4,90000010;
14:11:45:000;0,1362;0,3477;0,0976;56,35342841;37,51141221;4,90000010;
14:11:45:002;0,1435;0,3399;0,0956;56,35342841;37,51141221;4,90000010;
14:11:45:054;0,1435;0,3399;0,0956;56,35342841;37,51141221;4,90000010;
14:11:45:055;0,1435;0,3399;0,0956;56,35342841;37,51141221;4,90000010;
14:11:45:056;0,0441;0,4430;0,0469;56,35342841;37,51141221;4,90000010;
14:11:45:127;0,0441;0,4430;0,0469;56,35342841;37,51141221;4,90000010;
14:11:45:130;0,0441;0,4430;0,0469;56,35342841;37,51141221;4,90000010;
14:11:45:132;0,0547;0,3839;-0,0558;56,35342841;37,51141221;4,90000010;
14:11:45:185;0,0547;0,3839;-0,0558;56,35342841;37,51141221;4,90000010;
14:11:45:187;0,0547;0,3839;-0,0558;56,35342841;37,51141221;4,90000010;
14:11:45:190;-0,0119;0,3971;-0,1863;56,35342841;37,51141221;4,90000010;
14:11:45:248;-0,0119;0,3971;-0,1863;56,35342841;37,51141221;4,90000010;
14:11:45:251;-0,0119;0,3971;-0,1863;56,35342841;37,51141221;4,90000010;
14:11:45:254;-0,0204;0,3478;-0,0689;56,35342841;37,51141221;4,90000010;
14:11:45:307;-0,0204;0,3478;-0,0689;56,35342841;37,51141221;4,90000010;
14:11:45:310;-0,0204;0,3478;-0,0689;56,35342841;37,51141221;4,90000010;
14:11:45:312;0,0412;0,2981;0,1044;56,35342841;37,51141221;4,90000010;
14:11:45:326;0,0412;0,2981;0,1044;56,35342841;37,51141221;4,90000010;
14:11:45:387;0,0412;0,2981;0,1044;56,35342841;37,51141221;4,90000010;
14:11:45:390;0,0412;0,2981;0,1044;56,35342841;37,51141221;4,90000010;
14:11:45:392;-0,0546;0,2284;-0,0189;56,35342841;37,51141221;4,90000010;
14:11:45:449;-0,0546;0,2284;-0,0189;56,35342841;37,51141221;4,90000010;
14:11:45:452;-0,0546;0,2284;-0,0189;56,35342841;37,51141221;4,90000010;
14:11:45:455;0,0283;0,2975;-0,0840;56,35342841;37,51141221;4,90000010;
14:11:45:509;0,0283;0,2975;-0,0840;56,35342841;37,51141221;4,90000010;
14:11:45:512;0,0283;0,2975;-0,0840;56,35342841;37,51141221;4,90000010;
14:11:45:514;0,0395;0,2310;-0,3049;56,35342841;37,51141221;4,90000010;
14:11:45:570;0,0395;0,2310;-0,3049;56,35342841;37,51141221;4,90000010;
14:11:45:575;0,0034;0,2258;0,1126;56,35342841;37,51141221;4,90000010;
14:11:45:581;0,0034;0,2258;0,1126;56,35342841;37,51141221;4,90000010;
14:11:45:640;0,0034;0,2258;0,1126;56,35342841;37,51141221;4,90000010;
14:11:45:644;0,0034;0,2258;0,1126;56,35342841;37,51141221;4,90000010;
14:11:45:646;0,0623;0,1843;-0,0533;56,35342841;37,51141221;4,90000010;
14:11:45:700;0,0623;0,1843;-0,0533;56,35342841;37,51141221;4,90000010;
14:11:45:705;0,0623;0,1843;-0,0533;56,35342841;37,51141221;4,90000010;
14:11:45:708;0,0139;0,1846;-0,1412;56,35342841;37,51141221;4,90000010;
14:11:45:758;0,0139;0,1846;-0,1412;56,35342841;37,51141221;4,90000010;
14:11:45:761;0,0139;0,1846;-0,1412;56,35342841;37,51141221;4,90000010;
14:11:45:762;-0,0086;0,1426;0,1067;56,35342841;37,51141221;4,90000010;
14:11:45:820;-0,0086;0,1426;0,1067;56,35342841;37,51141221;4,90000010;
14:11:45:823;-0,0086;0,1426;0,1067;56,35342841;37,51141221;4,90000010;
14:11:45:826;-0,1007;0,1270;-0,0258;56,35342841;37,51141221;4,90000010;
14:11:45:844;-0,0986;0,1245;-0,0231;56,35342841;37,51141221;4,90000010;
14:11:45:847;-0,0986;0,1245;-0,0231;56,35342841;37,51141221;4,90000010;
14:11:45:900;-0,0986;0,1245;-0,0231;56,35342841;37,51141221;4,90000010;
14:11:45:904;-0,0986;0,1245;-0,0231;56,35342841;37,51141221;4,90000010;
14:11:45:905;-0,1118;0,1507;-0,0714;56,35342841;37,51141221;4,90000010;
14:11:45:959;-0,1118;0,1507;-0,0714;56,35342841;37,51141221;4,90000010;
14:11:45:962;-0,1118;0,1507;-0,0714;56,35341108;37,51150456;5,76999998;
14:11:45:964;0,0745;0,1210;-0,2235;56,35341108;37,51150456;5,76999998;
14:11:46:013;0,0745;0,1210;-0,2235;56,35341108;37,51150456;5,76999998;
14:11:46:070;0,0745;0,1210;-0,2235;56,35341108;37,51150456;5,76999998;
14:11:46:074;0,0745;0,1210;-0,2235;56,35341108;37,51150456;5,76999998;
14:11:46:076;0,1128;0,0982;-0,0399;56,35341108;37,51150456;5,76999998;
14:11:46:107;0,1128;0,0982;-0,0399;56,35341108;37,51150456;5,76999998;
14:11:46:113;0,1128;0,0982;-0,0399;56,35341108;37,51150456;5,76999998;
14:11:46:116;-0,0344;0,0505;-0,0343;56,35341108;37,51150456;5,76999998;
14:11:46:161;-0,0344;0,0505;-0,0343;56,35341108;37,51150456;5,76999998;
14:11:46:164;-0,0344;0,0505;-0,0343;56,35341108;37,51150456;5,76999998;
14:11:46:166;-0,0997;0,0724;0,0571;56,35341108;37,51150456;5,76999998;
14:11:46:220;-0,0997;0,0724;0,0571;56,35341108;37,51150456;5,76999998;
14:11:46:223;-0,0997;0,0724;0,0571;56,35341108;37,51150456;5,76999998;
14:11:46:224;0,0551;0,1036;-0,0806;56,35341108;37,51150456;5,76999998;
14:11:46:283;0,0551;0,1036;-0,0806;56,35341108;37,51150456;5,76999998;
14:11:46:287;0,0551;0,1036;-0,0806;56,35341108;37,51150456;5,76999998;
14:11:46:290;0,0587;0,0861;-0,1271;56,35341108;37,51150456;5,76999998;
14:11:46:343;0,0587;0,0861;-0,1271;56,35341108;37,51150456;5,76999998;
14:11:46:345;0,0587;0,0861;-0,1271;56,35341108;37,51150456;5,76999998;
14:11:46:348;0,0957;0,0847;-0,1097;56,35341108;37,51150456;5,76999998;
14:11:46:423;0,0957;0,0847;-0,1097;56,35341108;37,51150456;5,76999998;
14:11:46:427;0,0957;0,0847;-0,1097;56,35341108;37,51150456;5,76999998;
14:11:46:429;0,0740;0,0686;-0,1168;56,35341108;37,51150456;5,76999998;
14:11:46:482;0,0740;0,0686;-0,1168;56,35341108;37,51150456;5,76999998;
14:11:46:484;0,0740;0,0686;-0,1168;56,35341108;37,51150456;5,76999998;
14:11:46:485;-0,0496;0,0924;0,1060;56,35341108;37,51150456;5,76999998;
14:11:46:526;-0,0496;0,0924;0,1060;56,35341108;37,51150456;5,76999998;
14:11:46:529;-0,0496;0,0924;0,1060;56,35341108;37,51150456;5,76999998;
14:11:46:530;0,0300;0,0601;-0,0443;56,35341108;37,51150456;5,76999998;
14:11:46:582;0,0300;0,0601;-0,0443;56,35341108;37,51150456;5,76999998;
14:11:46:584;0,0300;0,0601;-0,0443;56,35341108;37,51150456;5,76999998;
14:11:46:585;0,1043;0,1050;-0,3378;56,35341108;37,51150456;5,76999998;
14:11:46:627;0,1043;0,1050;-0,3378;56,35341108;37,51150456;5,76999998;
14:11:46:629;0,1115;0,1178;-0,3333;56,35341108;37,51150456;5,76999998;
14:11:46:683;0,1115;0,1178;-0,3333;56,35341108;37,51150456;5,76999998;
14:11:46:685;0,1115;0,1178;-0,3333;56,35341108;37,51150456;5,76999998;
14:11:46:686;0,1226;0,0137;0,1127;56,35341108;37,51150456;5,76999998;
14:11:46:744;0,1226;0,0137;0,1127;56,35341108;37,51150456;5,76999998;
14:11:46:747;0,1226;0,0137;0,1127;56,35341108;37,51150456;5,76999998;
14:11:46:749;0,0152;0,0314;0,1091;56,35341108;37,51150456;5,76999998;
14:11:46:802;0,0152;0,0314;0,1091;56,35341108;37,51150456;5,76999998;
14:11:46:804;0,0152;0,0314;0,1091;56,35341108;37,51150456;5,76999998;
14:11:46:805;-0,0252;0,0913;0,0201;56,35341108;37,51150456;5,76999998;
14:11:46:865;0,0259;0,0618;-0,2097;56,35341108;37,51150456;5,76999998;
14:11:46:870;0,0259;0,0618;-0,2097;56,35341108;37,51150456;5,76999998;
14:11:46:872;0,0259;0,0618;-0,2097;56,35341108;37,51150456;5,76999998;
14:11:46:889;0,0259;0,0618;-0,2097;56,35341108;37,51150456;5,76999998;
14:11:46:947;0,0259;0,0618;-0,2097;56,35341108;37,51150456;5,76999998;
14:11:46:950;0,0259;0,0618;-0,2097;56,35338987;37,51160884;6,86000013;
14:11:46:952;0,1136;0,0676;-0,2219;56,35338987;37,51160884;6,86000013;
14:11:47:004;0,1136;0,0676;-0,2219;56,35338987;37,51160884;6,86000013;
14:11:47:009;0,1136;0,0676;-0,2219;56,35338987;37,51160884;6,86000013;
14:11:47:010;0,0842;0,0895;0,1088;56,35338987;37,51160884;6,86000013;
14:11:47:066;0,0842;0,0895;0,1088;56,35338987;37,51160884;6,86000013;
14:11:47:070;0,0842;0,0895;0,1088;56,35338987;37,51160884;6,86000013;
14:11:47:074;0,0242;0,0663;0,0256;56,35338987;37,51160884;6,86000013;
14:11:47:125;0,0242;0,0663;0,0256;56,35338987;37,51160884;6,86000013;
14:11:47:127;0,0242;0,0663;0,0256;56,35338987;37,51160884;6,86000013;
14:11:47:128;0,0352;0,0633;-0,0802;56,35338987;37,51160884;6,86000013;
14:11:47:207;0,0352;0,0633;-0,0802;56,35338987;37,51160884;6,86000013;
14:11:47:210;0,0352;0,0633;-0,0802;56,35338987;37,51160884;6,86000013;
14:11:47:213;-0,0102;0,0090;-0,0698;56,35338987;37,51160884;6,86000013;
14:11:47:267;-0,0102;0,0090;-0,0698;56,35338987;37,51160884;6,86000013;
14:11:47:270;-0,0102;0,0090;-0,0698;56,35338987;37,51160884;6,86000013;
14:11:47:272;-0,0197;0,0281;0,0469;56,35338987;37,51160884;6,86000013;
14:11:47:328;-0,0197;0,0281;0,0469;56,35338987;37,51160884;6,86000013;
14:11:47:331;-0,0197;0,0281;0,0469;56,35338987;37,51160884;6,86000013;
14:11:47:334;0,0401;0,0596;-0,0224;56,35338987;37,51160884;6,86000013;
14:11:47:386;0,0401;0,0596;-0,0224;56,35338987;37,51160884;6,86000013;
14:11:47:388;0,0401;0,0596;-0,0224;56,35338987;37,51160884;6,86000013;
14:11:47:391;0,1128;0,0749;-0,0990;56,35338987;37,51160884;6,86000013;
14:11:47:413;0,1128;0,0749;-0,0990;56,35338987;37,51160884;6,86000013;
14:11:47:417;0,1026;0,0715;-0,0882;56,35338987;37,51160884;6,86000013;
14:11:47:468;0,1026;0,0715;-0,0882;56,35338987;37,51160884;6,86000013;
14:11:47:472;0,1026;0,0715;-0,0882;56,35338987;37,51160884;6,86000013;
14:11:47:474;-0,0937;0,0018;-0,0275;56,35338987;37,51160884;6,86000013;
14:11:47:529;-0,0937;0,0018;-0,0275;56,35338987;37,51160884;6,86000013;
14:11:47:533;-0,0937;0,0018;-0,0275;56,35338987;37,51160884;6,86000013;
14:11:47:535;-0,1140;0,0609;0,1615;56,35338987;37,51160884;6,86000013;
14:11:47:588;-0,1140;0,0609;0,1615;56,35338987;37,51160884;6,86000013;
14:11:47:593;-0,1140;0,0609;0,1615;56,35338987;37,51160884;6,86000013;
14:11:47:595;0,1233;-0,0155;0,1345;56,35338987;37,51160884;6,86000013;
14:11:47:648;0,1233;-0,0155;0,1345;56,35338987;37,51160884;6,86000013;
14:11:47:650;0,1233;-0,0155;0,1345;56,35338987;37,51160884;6,86000013;
14:11:47:651;0,0769;-0,1710;-0,0853;56,35338987;37,51160884;6,86000013;
14:11:47:673;0,0769;-0,1710;-0,0853;56,35338987;37,51160884;6,86000013;
14:11:47:730;0,0769;-0,1710;-0,0853;56,35338987;37,51160884;6,86000013;
14:11:47:734;0,0769;-0,1710;-0,0853;56,35338987;37,51160884;6,86000013;
14:11:47:736;-0,0274;-0,0444;0,1820;56,35338987;37,51160884;6,86000013;
14:11:47:790;-0,0274;-0,0444;0,1820;56,35338987;37,51160884;6,86000013;
14:11:47:793;0,0243;-0,0219;0,0367;56,35338987;37,51160884;6,86000013;
14:11:47:796;0,0243;-0,0219;0,0367;56,35338987;37,51160884;6,86000013;
14:11:47:848;0,0243;-0,0219;0,0367;56,35338987;37,51160884;6,86000013;
14:11:47:850;0,0243;-0,0219;0,0367;56,35338987;37,51160884;6,86000013;
14:11:47:852;0,1089;-0,0536;-0,0438;56,35338987;37,51160884;6,86000013;
14:11:47:912;0,1089;-0,0536;-0,0438;56,35338987;37,51160884;6,86000013;
14:11:47:917;0,1089;-0,0536;-0,0438;56,35338987;37,51160884;6,86000013;
14:11:47:921;-0,0441;0,0125;0,0284;56,35338987;37,51160884;6,86000013;
14:11:47:989;-0,0441;0,0125;0,0284;56,35338987;37,51160884;6,86000013;
14:11:47:991;-0,0441;0,0125;0,0284;56,35336122;37,51174322;8,19999981;
14:11:47:993;-0,0245;0,1602;0,1104;56,35336122;37,51174322;8,19999981;
14:11:48:050;-0,0245;0,1602;0,1104;56,35336122;37,51174322;8,19999981;
14:11:48:052;-0,0245;0,1602;0,1104;56,35336122;37,51174322;8,19999981;
14:11:48:054;0,0180;-0,0622;-0,0613;56,35336122;37,51174322;8,19999981;
14:11:48:112;0,0180;-0,0622;-0,0613;56,35336122;37,51174322;8,19999981;
14:11:48:116;0,0180;-0,0622;-0,0613;56,35336122;37,51174322;8,19999981;
14:11:48:118;0,0160;0,0261;-0,0071;56,35336122;37,51174322;8,19999981;
14:11:48:173;0,0160;0,0261;-0,0071;56,35336122;37,51174322;8,19999981;
14:11:48:176;0,0160;0,0261;-0,0071;56,35336122;37,51174322;8,19999981;
14:11:48:180;-0,0555;-0,0569;0,0028;56,35336122;37,51174322;8,19999981;
14:11:48:196;-0,0555;-0,0569;0,0028;56,35336122;37,51174322;8,19999981;
14:11:48:199;-0,0545;-0,0448;0,0025;56,35336122;37,51174322;8,19999981;
14:11:48:253;-0,0545;-0,0448;0,0025;56,35336122;37,51174322;8,19999981;
14:11:48:256;-0,0545;-0,0448;0,0025;56,35336122;37,51174322;8,19999981;
14:11:48:258;0,1228;-0,0515;0,1193;56,35336122;37,51174322;8,19999981;
14:11:48:313;0,1228;-0,0515;0,1193;56,35336122;37,51174322;8,19999981;
14:11:48:316;0,1228;-0,0515;0,1193;56,35336122;37,51174322;8,19999981;
14:11:48:319;0,0092;-0,0902;-0,0239;56,35336122;37,51174322;8,19999981;
14:11:48:374;0,0092;-0,0902;-0,0239;56,35336122;37,51174322;8,19999981;
14:11:48:377;0,0092;-0,0902;-0,0239;56,35336122;37,51174322;8,19999981;
14:11:48:379;0,0606;-0,0443;0,0195;56,35336122;37,51174322;8,19999981;
14:11:48:433;0,0606;-0,0443;0,0195;56,35336122;37,51174322;8,19999981;
14:11:48:437;0,0606;-0,0443;0,0195;56,35336122;37,51174322;8,19999981;
14:11:48:439;0,0238;-0,0569;0,0966;56,35336122;37,51174322;8,19999981;
14:11:48:459;0,0238;-0,0569;0,0966;56,35336122;37,51174322;8,19999981;
14:11:48:514;0,0238;-0,0569;0,0966;56,35336122;37,51174322;8,19999981;
14:11:48:517;0,0238;-0,0569;0,0966;56,35336122;37,51174322;8,19999981;
14:11:48:519;0,0693;-0,3237;-0,0999;56,35336122;37,51174322;8,19999981;
14:11:48:574;0,0693;-0,3237;-0,0999;56,35336122;37,51174322;8,19999981;
14:11:48:577;0,0693;-0,3237;-0,0999;56,35336122;37,51174322;8,19999981;
14:11:48:580;0,0249;-0,3095;0,0600;56,35336122;37,51174322;8,19999981;
14:11:48:634;0,0249;-0,3095;0,0600;56,35336122;37,51174322;8,19999981;
14:11:48:639;0,0249;-0,3095;0,0600;56,35336122;37,51174322;8,19999981;
14:11:48:641;0,0491;-0,3917;0,0069;56,35336122;37,51174322;8,19999981;
14:11:48:695;0,0491;-0,3917;0,0069;56,35336122;37,51174322;8,19999981;
14:11:48:698;0,0491;-0,3917;0,0069;56,35336122;37,51174322;8,19999981;
14:11:48:700;0,0227;-0,5068;-0,0529;56,35336122;37,51174322;8,19999981;
14:11:48:776;-0,0120;-0,5489;-0,0595;56,35336122;37,51174322;8,19999981;
14:11:48:780;-0,0120;-0,5489;-0,0595;56,35336122;37,51174322;8,19999981;
14:11:48:783;-0,0120;-0,5489;-0,0595;56,35336122;37,51174322;8,19999981;
14:11:48:834;-0,0120;-0,5489;-0,0595;56,35336122;37,51174322;8,19999981;
14:11:48:836;-0,0120;-0,5489;-0,0595;56,35336122;37,51174322;8,19999981;
14:11:48:837;0,0157;-0,5582;0,1623;56,35336122;37,51174322;8,19999981;
14:11:48:896;0,0157;-0,5582;0,1623;56,35336122;37,51174322;8,19999981;
14:11:48:900;0,0157;-0,5582;0,1623;56,35336122;37,51174322;8,19999981;
14:11:48:902;0,0398;-0,4990;0,0192;56,35336122;37,51174322;8,19999981;
14:11:48:956;0,0398;-0,4990;0,0192;56,35336122;37,51174322;8,19999981;
14:11:48:958;0,0398;-0,4990;0,0192;56,35336122;37,51174322;8,19999981;
14:11:48:960;0,0490;-0,5032;-0,0293;56,35336122;37,51174322;8,19999981;
14:11:48:985;0,0490;-0,5032;-0,0293;56,35336122;37,51174322;8,19999981;
14:11:48:987;0,0413;-0,4466;-0,0259;56,35332371;37,51190738;9,27999973;
14:11:49:034;0,0413;-0,4466;-0,0259;56,35332371;37,51190738;9,27999973;
14:11:49:037;0,0413;-0,4466;-0,0259;56,35332371;37,51190738;9,27999973;
14:11:49:038;-0,0422;-0,3598;0,1331;56,35332371;37,51190738;9,27999973;
14:11:49:095;-0,0422;-0,3598;0,1331;56,35332371;37,51190738;9,27999973;
14:11:49:097;-0,0422;-0,3598;0,1331;56,35332371;37,51190738;9,27999973;
14:11:49:099;0,0200;-0,3715;-0,0041;56,35332371;37,51190738;9,27999973;
14:11:49:157;0,0200;-0,3715;-0,0041;56,35332371;37,51190738;9,27999973;
14:11:49:160;0,0200;-0,3715;-0,0041;56,35332371;37,51190738;9,27999973;
14:11:49:164;0,0403;-0,3176;0,0233;56,35332371;37,51190738;9,27999973;
14:11:49:216;0,0403;-0,3176;0,0233;56,35332371;37,51190738;9,27999973;
14:11:49:219;0,0403;-0,3176;0,0233;56,35332371;37,51190738;9,27999973;
14:11:49:222;-0,0780;-0,2876;0,0095;56,35332371;37,51190738;9,27999973;
14:11:49:242;-0,0780;-0,2876;0,0095;56,35332371;37,51190738;9,27999973;
14:11:49:298;-0,0780;-0,2876;0,0095;56,35332371;37,51190738;9,27999973;
14:11:49:301;-0,0780;-0,2876;0,0095;56,35332371;37,51190738;9,27999973;
14:11:49:304;0,0052;-0,2577;0,0133;56,35332371;37,51190738;9,27999973;
14:11:49:358;0,0052;-0,2577;0,0133;56,35332371;37,51190738;9,27999973;
14:11:49:361;0,0052;-0,2577;0,0133;56,35332371;37,51190738;9,27999973;
14:11:49:363;-0,0477;-0,2782;0,0071;56,35332371;37,51190738;9,27999973;
14:11:49:418;-0,0477;-0,2782;0,0071;56,35332371;37,51190738;9,27999973;
14:11:49:421;-0,0477;-0,2782;0,0071;56,35332371;37,51190738;9,27999973;
14:11:49:424;-0,0441;-0,2160;0,0892;56,35332371;37,51190738;9,27999973;
14:11:49:478;-0,0441;-0,2160;0,0892;56,35332371;37,51190738;9,27999973;
14:11:49:482;-0,0441;-0,2160;0,0892;56,35332371;37,51190738;9,27999973;
14:11:49:484;-0,0087;-0,1555;0,0453;56,35332371;37,51190738;9,27999973;
14:11:49:559;-0,0087;-0,1555;0,0453;56,35332371;37,51190738;9,27999973;
14:11:49:563;-0,0087;-0,1555;0,0453;56,35332371;37,51190738;9,27999973;
14:11:49:565;0,0352;-0,2177;0,0226;56,35332371;37,51190738;9,27999973;
14:11:49:618;0,0352;-0,2177;0,0226;56,35332371;37,51190738;9,27999973;
14:11:49:621;0,0352;-0,2177;0,0226;56,35332371;37,51190738;9,27999973;
14:11:49:622;-0,0980;-0,1158;0,0886;56,35332371;37,51190738;9,27999973;
14:11:49:681;-0,0980;-0,1158;0,0886;56,35332371;37,51190738;9,27999973;
14:11:49:686;-0,0980;-0,1158;0,0886;56,35332371;37,51190738;9,27999973;
14:11:49:689;-0,0931;-0,1450;0,0476;56,35332371;37,51190738;9,27999973;
14:11:49:739;-0,0931;-0,1450;0,0476;56,35332371;37,51190738;9,27999973;
14:11:49:742;-0,0931;-0,1450;0,0476;56,35332371;37,51190738;9,27999973;
14:11:49:743;-0,0212;-0,1157;-0,0267;56,35332371;37,51190738;9,27999973;
14:11:49:767;-0,0195;-0,1051;-0,0238;56,35332371;37,51190738;9,27999973;
14:11:49:769;-0,0195;-0,1051;-0,0238;56,35332371;37,51190738;9,27999973;
14:11:49:821;-0,0195;-0,1051;-0,0238;56,35332371;37,51190738;9,27999973;
14:11:49:824;-0,0195;-0,1051;-0,0238;56,35332371;37,51190738;9,27999973;
14:11:49:827;-0,1136;-0,0907;0,0673;56,35332371;37,51190738;9,27999973;
14:11:49:881;-0,1136;-0,0907;0,0673;56,35332371;37,51190738;9,27999973;
14:11:49:884;-0,1136;-0,0907;0,0673;56,35332371;37,51190738;9,27999973;
14:11:49:886;-0,0188;-0,1038;0,0974;56,35332371;37,51190738;9,27999973;
14:11:49:947;-0,0188;-0,1038;0,0974;56,35332371;37,51190738;9,27999973;
14:11:49:949;-0,0188;-0,1038;0,0974;56,35329035;37,51206107;9,81999969;
14:11:49:951;0,0187;-0,0529;0,0271;56,35329035;37,51206107;9,81999969;
14:11:50:000;0,0187;-0,0529;0,0271;56,35329035;37,51206107;9,81999969;
14:11:50:002;0,0187;-0,0529;0,0271;56,35329035;37,51206107;9,81999969;
14:11:50:004;-0,0182;-0,0915;0,0260;56,35329035;37,51206107;9,81999969;
14:11:50:027;-0,0182;-0,0915;0,0260;56,35329035;37,51206107;9,81999969;
14:11:50:081;-0,0182;-0,0915;0,0260;56,35329035;37,51206107;9,81999969;
14:11:50:084;-0,0182;-0,0915;0,0260;56,35329035;37,51206107;9,81999969;
14:11:50:086;-0,0744;-0,0332;0,0195;56,35329035;37,51206107;9,81999969;
14:11:50:143;-0,0744;-0,0332;0,0195;56,35329035;37,51206107;9,81999969;
14:11:50:146;-0,0744;-0,0332;0,0195;56,35329035;37,51206107;9,81999969;
14:11:50:148;0,0734;-0,0777;-0,0027;56,35329035;37,51206107;9,81999969;
14:11:50:202;0,0734;-0,0777;-0,0027;56,35329035;37,51206107;9,81999969;
14:11:50:204;0,0734;-0,0777;-0,0027;56,35329035;37,51206107;9,81999969;
14:11:50:206;-0,0400;-0,0122;0,0702;56,35329035;37,51206107;9,81999969;
14:11:50:264;-0,0400;-0,0122;0,0702;56,35329035;37,51206107;9,81999969;
14:11:50:268;-0,0400;-0,0122;0,0702;56,35329035;37,51206107;9,81999969;
14:11:50:270;-0,0435;-0,0590;0,0532;56,35329035;37,51206107;9,81999969;
14:11:50:343;-0,0435;-0,0590;0,0532;56,35329035;37,51206107;9,81999969;
14:11:50:347;-0,0091;-0,0596;-0,0880;56,35329035;37,51206107;9,81999969;
14:11:50:350;-0,0091;-0,0596;-0,0880;56,35329035;37,51206107;9,81999969;
14:11:50:403;-0,0091;-0,0596;-0,0880;56,35329035;37,51206107;9,81999969;
14:11:50:405;-0,0091;-0,0596;-0,0880;56,35329035;37,51206107;9,81999969;
14:11:50:406;0,0139;-0,0344;0,1550;56,35329035;37,51206107;9,81999969;
14:11:50:465;0,0139;-0,0344;0,1550;56,35329035;37,51206107;9,81999969;
14:11:50:468;0,0139;-0,0344;0,1550;56,35329035;37,51206107;9,81999969;
14:11:50:472;0,0213;-0,0426;0,1331;56,35329035;37,51206107;9,81999969;
14:11:50:523;0,0213;-0,0426;0,1331;56,35329035;37,51206107;9,81999969;
14:11:50:525;0,0213;-0,0426;0,1331;56,35329035;37,51206107;9,81999969;
14:11:50:526;-0,0584;-0,0437;-0,0388;56,35329035;37,51206107;9,81999969;
14:11:50:554;-0,0511;-0,0449;-0,0348;56,35329035;37,51206107;9,81999969;
14:11:50:559;-0,0511;-0,0449;-0,0348;56,35329035;37,51206107;9,81999969;
14:11:50:606;-0,0511;-0,0449;-0,0348;56,35329035;37,51206107;9,81999969;
14:11:50:610;-0,0511;-0,0449;-0,0348;56,35329035;37,51206107;9,81999969;
14:11:50:612;-0,0387;-0,0627;0,0301;56,35329035;37,51206107;9,81999969;
14:11:50:664;-0,0387;-0,0627;0,0301;56,35329035;37,51206107;9,81999969;
14:11:50:667;-0,0387;-0,0627;0,0301;56,35329035;37,51206107;9,81999969;
14:11:50:670;0,0418;-0,0226;0,1843;56,35329035;37,51206107;9,81999969;
14:11:50:726;0,0418;-0,0226;0,1843;56,35329035;37,51206107;9,81999969;
14:11:50:730;0,0418;-0,0226;0,1843;56,35329035;37,51206107;9,81999969;
14:11:50:733;0,0222;-0,0154;-0,0228;56,35329035;37,51206107;9,81999969;
14:11:50:785;0,0222;-0,0154;-0,0228;56,35329035;37,51206107;9,81999969;
14:11:50:789;0,0222;-0,0154;-0,0228;56,35329035;37,51206107;9,81999969;
14:11:50:792;-0,0211;-0,0773;0,0055;56,35329035;37,51206107;9,81999969;
14:11:50:812;-0,0211;-0,0773;0,0055;56,35329035;37,51206107;9,81999969;
14:11:50:865;-0,0211;-0,0773;0,0055;56,35329035;37,51206107;9,81999969;
14:11:50:867;-0,0211;-0,0773;0,0055;56,35329035;37,51206107;9,81999969;
14:11:50:868;-0,0102;-0,0556;0,0417;56,35329035;37,51206107;9,81999969;
14:11:50:926;-0,0102;-0,0556;0,0417;56,35329035;37,51206107;9,81999969;
14:11:50:930;-0,0102;-0,0556;0,0417;56,35329035;37,51206107;9,81999969;
14:11:50:932;-0,0105;-0,0587;0,0143;56,35329035;37,51206107;9,81999969;
14:11:50:985;-0,0105;-0,0587;0,0143;56,35329035;37,51206107;9,81999969;
14:11:50:987;-0,0105;-0,0587;0,0143;56,35325568;37,51222354;10,15999985;
14:11:50:989;-0,0169;0,0017;0,0903;56,35325568;37,51222354;10,15999985;
14:11:51:045;-0,0169;0,0017;0,0903;56,35325568;37,51222354;10,15999985;
14:11:51:047;-0,0169;0,0017;0,0903;56,35325568;37,51222354;10,15999985;
14:11:51:049;-0,0201;-0,0480;0,0117;56,35325568;37,51222354;10,15999985;
14:11:51:126;-0,0201;-0,0480;0,0117;56,35325568;37,51222354;10,15999985;
14:11:51:129;-0,0201;-0,0480;0,0117;56,35325568;37,51222354;10,15999985;
14:11:51:132;-0,0053;-0,0573;-0,0216;56,35325568;37,51222354;10,15999985;
14:11:51:186;-0,0053;-0,0573;-0,0216;56,35325568;37,51222354;10,15999985;
14:11:51:189;-0,0053;-0,0573;-0,0216;56,35325568;37,51222354;10,15999985;
14:11:51:195;-0,0902;-0,0472;0,0087;56,35325568;37,51222354;10,15999985;
14:11:51:245;-0,0902;-0,0472;0,0087;56,35325568;37,51222354;10,15999985;
14:11:51:247;-0,0902;-0,0472;0,0087;56,35325568;37,51222354;10,15999985;
14:11:51:248;-0,0283;-0,0419;0,0090;56,35325568;37,51222354;10,15999985;
14:11:51:307;-0,0283;-0,0419;0,0090;56,35325568;37,51222354;10,15999985;
14:11:51:309;-0,0283;-0,0419;0,0090;56,35325568;37,51222354;10,15999985;
14:11:51:311;-0,0196;-0,0402;-0,0315;56,35325568;37,51222354;10,15999985;
14:11:51:336;-0,0196;-0,0402;-0,0315;56,35325568;37,51222354;10,15999985;
14:11:51:337;-0,0190;-0,0370;-0,0280;56,35325568;37,51222354;10,15999985;
14:11:51:387;-0,0190;-0,0370;-0,0280;56,35325568;37,51222354;10,15999985;
14:11:51:390;-0,0190;-0,0370;-0,0280;56,35325568;37,51222354;10,15999985;
14:11:51:393;-0,0017;-0,0099;-0,0753;56,35325568;37,51222354;10,15999985;
14:11:51:448;-0,0017;-0,0099;-0,0753;56,35325568;37,51222354;10,15999985;
14:11:51:451;-0,0017;-0,0099;-0,0753;56,35325568;37,51222354;10,15999985;
14:11:51:452;-0,0005;-0,0572;0,0949;56,35325568;37,51222354;10,15999985;
14:11:51:508;-0,0005;-0,0572;0,0949;56,35325568;37,51222354;10,15999985;
14:11:51:511;-0,0005;-0,0572;0,0949;56,35325568;37,51222354;10,15999985;
14:11:51:513;-0,0196;-0,0207;-0,0544;56,35325568;37,51222354;10,15999985;
14:11:51:570;-0,0196;-0,0207;-0,0544;56,35325568;37,51222354;10,15999985;
14:11:51:574;-0,0196;-0,0207;-0,0544;56,35325568;37,51222354;10,15999985;
14:11:51:575;-0,0488;-0,0216;-0,0008;56,35325568;37,51222354;10,15999985;
14:11:51:600;-0,0488;-0,0216;-0,0008;56,35325568;37,51222354;10,15999985;
14:11:51:660;-0,0488;-0,0216;-0,0008;56,35325568;37,51222354;10,15999985;
14:11:51:663;-0,0488;-0,0216;-0,0008;56,35325568;37,51222354;10,15999985;
14:11:51:664;0,0254;-0,0556;-0,1291;56,35325568;37,51222354;10,15999985;
14:11:51:720;0,0254;-0,0556;-0,1291;56,35325568;37,51222354;10,15999985;
14:11:51:723;0,0254;-0,0556;-0,1291;56,35325568;37,51222354;10,15999985;
14:11:51:725;-0,0066;-0,0470;-0,0900;56,35325568;37,51222354;10,15999985;
