
time;ax;ay;az;Latitude;Longitude;Speed (m/s);
23:08:02:562;0,0000;0,0000;0,0000;0,00000000;0,00000000;0,00000000;
23:08:02:665;0,0000;0,0000;0,0000;56,35136229;37,52115422;0,00000000;
23:08:02:667;0,0000;0,0000;0,0000;56,35136229;37,52115422;0,00000000;
23:08:02:724;0,0000;0,0000;0,0000;56,35136229;37,52115422;0,00000000;
23:08:02:725;0,0000;0,0000;-0,0000;56,35136229;37,52115422;0,00000000;
23:08:02:726;0,0000;0,0000;-0,0000;56,35136229;37,52115422;0,00000000;
23:08:02:785;0,0000;0,0000;-0,0000;56,35136229;37,52115422;0,00000000;
23:08:02:787;-0,0070;0,0199;-0,1655;56,35136229;37,52115422;0,00000000;
23:08:02:790;-0,0070;0,0199;-0,1655;56,35136229;37,52115422;0,00000000;
23:08:02:817;-0,0070;0,0199;-0,1655;56,35136229;37,52115422;0,00000000;
23:08:02:819;0,0274;0,0238;-0,0619;56,35136229;37,52115422;0,00000000;
23:08:02:876;0,0274;0,0238;-0,0619;56,35136229;37,52115422;0,00000000;
23:08:02:877;0,0274;0,0238;-0,0619;56,35136229;37,52115422;0,00000000;
23:08:02:878;-0,1173;-0,0119;0,0817;56,35136229;37,52115422;0,00000000;
23:08:02:936;-0,1173;-0,0119;0,0817;56,35136229;37,52115422;0,00000000;
23:08:02:938;-0,1173;-0,0119;0,0817;56,35136229;37,52115422;0,00000000;
23:08:02:939;0,0110;-0,0255;0,0741;56,35136229;37,52115422;0,00000000;
23:08:03:001;0,0110;-0,0255;0,0741;56,35136229;37,52115422;0,00000000;
23:08:03:003;0,0110;-0,0255;0,0741;56,35136229;37,52115422;0,00000000;
23:08:03:004;0,0820;-0,0312;0,2207;56,35136229;37,52115422;0,00000000;
23:08:03:057;0,0820;-0,0312;0,2207;56,35136229;37,52115422;0,00000000;
23:08:03:059;0,0820;-0,0312;0,2207;56,35136229;37,52115422;0,00000000;
23:08:03:060;0,0604;-0,0203;0,0604;56,35136229;37,52115422;0,00000000;
23:08:03:076;0,0604;-0,0203;0,0604;56,35136229;37,52115422;0,00000000;
23:08:03:140;0,0604;-0,0203;0,0604;56,35136229;37,52115422;0,00000000;
23:08:03:141;0,0604;-0,0203;0,0604;56,35136229;37,52115422;0,00000000;
23:08:03:142;0,0118;-0,0003;0,0435;56,35136229;37,52115422;0,00000000;
23:08:03:197;0,0118;-0,0003;0,0435;56,35136229;37,52115422;0,00000000;
23:08:03:198;0,0118;-0,0003;0,0435;56,35136229;37,52115422;0,00000000;
23:08:03:199;0,1112;-0,0477;0,2097;56,35136229;37,52115422;0,00000000;
23:08:03:257;0,1112;-0,0477;0,2097;56,35136229;37,52115422;0,00000000;
23:08:03:258;0,1112;-0,0477;0,2097;56,35136229;37,52115422;0,00000000;
23:08:03:260;0,1107;-0,0142;0,3838;56,35136229;37,52115422;0,00000000;
23:08:03:317;0,1107;-0,0142;0,3838;56,35136229;37,52115422;0,00000000;
23:08:03:318;0,1107;-0,0142;0,3838;56,35136229;37,52115422;0,00000000;
23:08:03:319;0,1030;0,0041;0,2713;56,35136229;37,52115422;0,00000000;
23:08:03:401;0,1030;0,0041;0,2713;56,35136229;37,52115422;0,00000000;
23:08:03:403;0,1030;0,0041;0,2713;56,35136229;37,52115422;0,00000000;
23:08:03:405;-0,0424;0,0171;0,1859;56,35136229;37,52115422;0,00000000;
23:08:03:460;-0,0424;0,0171;0,1859;56,35136229;37,52115422;0,00000000;
23:08:03:462;0,1484;0,1245;0,0531;56,35136229;37,52115422;0,00000000;
23:08:03:466;0,1484;0,1245;0,0531;56,35136229;37,52115422;0,00000000;
23:08:03:519;0,1484;0,1245;0,0531;56,35136229;37,52115422;0,00000000;
23:08:03:521;0,1484;0,1245;0,0531;56,35136229;37,52115422;0,00000000;
23:08:03:524;0,0189;0,1488;0,0999;56,35136229;37,52115422;0,00000000;
23:08:03:582;0,0189;0,1488;0,0999;56,35136229;37,52115422;0,00000000;
23:08:03:585;0,0189;0,1488;0,0999;56,35136229;37,52115422;0,00000000;
23:08:03:586;-0,0906;0,1269;0,1710;56,35136229;37,52115422;0,00000000;
23:08:03:604;-0,0810;0,1175;0,1600;56,35136229;37,52115422;0,00000000;
23:08:03:607;-0,0810;0,1175;0,1600;56,35136229;37,52115422;0,00000000;
23:08:03:660;-0,0810;0,1175;0,1600;56,35136229;37,52115422;0,00000000;
23:08:03:663;-0,0810;0,1175;0,1600;56,35136229;37,52115422;0,00000000;
23:08:03:666;0,0862;0,1638;0,1500;56,35136229;37,52115422;0,00000000;
23:08:03:721;0,0862;0,1638;0,1500;56,35136229;37,52115422;0,00000000;
23:08:03:722;0,0862;0,1638;0,1500;56,35136229;37,52115422;0,00000000;
23:08:03:724;-0,1176;0,1624;-0,0077;56,35136229;37,52115422;0,00000000;
23:08:03:781;-0,1176;0,1624;-0,0077;56,35136229;37,52115422;0,00000000;
23:08:03:783;-0,1176;0,1624;-0,0077;56,35136229;37,52115422;0,00000000;
23:08:03:785;0,0546;0,2159;0,0102;56,35136229;37,52115422;0,00000000;
23:08:03:842;0,0546;0,2159;0,0102;56,35136229;37,52115422;0,00000000;
23:08:03:844;0,0546;0,2159;0,0102;56,35136229;37,52115422;0,00000000;
23:08:03:846;-0,0594;0,1560;0,0885;56,35136229;37,52115422;0,00000000;
23:08:03:861;-0,0594;0,1560;0,0885;56,35136229;37,52115422;0,00000000;
23:08:03:922;-0,0594;0,1560;0,0885;56,35136229;37,52115422;0,00000000;
23:08:03:924;-0,0594;0,1560;0,0885;56,35136229;37,52115422;0,00000000;
23:08:03:926;-0,0775;0,1465;-0,0829;56,35136229;37,52115422;0,00000000;
23:08:03:982;-0,0775;0,1465;-0,0829;56,35136229;37,52115422;0,00000000;
23:08:03:985;-0,0775;0,1465;-0,0829;56,35136229;37,52115422;0,00000000;
23:08:03:988;-0,0165;0,1848;-0,0546;56,35136229;37,52115422;0,00000000;
23:08:04:042;-0,0165;0,1848;-0,0546;56,35136229;37,52115422;0,00000000;
23:08:04:044;-0,0165;0,1848;-0,0546;56,35136229;37,52115422;0,00000000;
23:08:04:045;-0,2015;0,1969;-0,2334;56,35136229;37,52115422;0,00000000;
23:08:04:105;-0,1108;0,0962;0,2141;56,35136229;37,52115422;0,00000000;
23:08:04:108;-0,1108;0,0962;0,2141;56,35136229;37,52115422;0,00000000;
23:08:04:110;-0,1108;0,0962;0,2141;56,35136229;37,52115422;0,00000000;
23:08:04:185;-0,3016;0,1899;-0,1497;56,35136229;37,52115422;0,00000000;
23:08:04:188;-0,3016;0,1899;-0,1497;56,35136229;37,52115422;0,00000000;
23:08:04:190;-0,3016;0,1899;-0,1497;56,35136229;37,52115422;0,00000000;
23:08:04:243;-0,3016;0,1899;-0,1497;56,35136229;37,52115422;0,00000000;
23:08:04:245;-0,3016;0,1899;-0,1497;56,35136229;37,52115422;0,00000000;
23:08:04:247;-0,3335;0,2260;-0,2714;56,35136229;37,52115422;0,00000000;
23:08:04:306;-0,3335;0,2260;-0,2714;56,35136229;37,52115422;0,00000000;
23:08:04:309;-0,3335;0,2260;-0,2714;56,35136229;37,52115422;0,00000000;
23:08:04:311;-0,4398;0,1941;-0,1049;56,35136229;37,52115422;0,00000000;
23:08:04:364;-0,4398;0,1941;-0,1049;56,35136229;37,52115422;0,00000000;
23:08:04:365;-0,4398;0,1941;-0,1049;56,35136229;37,52115422;0,00000000;
23:08:04:366;-0,3821;0,1740;-0,1007;56,35136229;37,52115422;0,00000000;
23:08:04:385;-0,3821;0,1740;-0,1007;56,35136229;37,52115422;0,00000000;
23:08:04:387;-0,3687;0,1788;-0,0956;56,35136229;37,52115422;0,00000000;
23:08:04:445;-0,3687;0,1788;-0,0956;56,35136229;37,52115422;0,00000000;
23:08:04:447;-0,3687;0,1788;-0,0956;56,35136229;37,52115422;0,00000000;
23:08:04:449;-0,2843;0,1800;0,2127;56,35136229;37,52115422;0,00000000;
23:08:04:505;-0,2843;0,1800;0,2127;56,35136229;37,52115422;0,00000000;
23:08:04:507;-0,2843;0,1800;0,2127;56,35136229;37,52115422;0,00000000;
23:08:04:508;-0,4583;0,1790;-0,0115;56,35136229;37,52115422;0,00000000;
23:08:04:569;-0,4583;0,1790;-0,0115;56,35136229;37,52115422;0,00000000;
23:08:04:571;-0,4583;0,1790;-0,0115;56,35136229;37,52115422;0,00000000;
23:08:04:573;-0,2773;0,1644;0,0783;56,35136229;37,52115422;0,00000000;
23:08:04:625;-0,2773;0,1644;0,0783;56,35136229;37,52115422;0,00000000;
23:08:04:627;-0,2773;0,1644;0,0783;56,35136229;37,52115422;0,00000000;
23:08:04:630;-0,2426;0,1480;0,0976;56,35136229;37,52115422;0,00000000;
23:08:04:648;-0,2426;0,1480;0,0976;56,35136229;37,52115422;0,00000000;
23:08:04:706;-0,2426;0,1480;0,0976;56,35136229;37,52115422;0,00000000;
23:08:04:709;-0,2426;0,1480;0,0976;56,35136229;37,52115422;0,00000000;
23:08:04:710;-0,2176;0,1194;0,0976;56,35136229;37,52115422;0,00000000;
23:08:04:769;-0,2176;0,1194;0,0976;56,35136229;37,52115422;0,00000000;
23:08:04:771;-0,2176;0,1194;0,0976;56,35136229;37,52115422;0,00000000;
23:08:04:773;-0,2714;0,0240;0,4200;56,35136229;37,52115422;0,00000000;
23:08:04:827;-0,2714;0,0240;0,4200;56,35136229;37,52115422;0,00000000;
23:08:04:829;-0,2714;0,0240;0,4200;56,35136229;37,52115422;0,00000000;
23:08:04:832;-0,2322;0,1196;0,0772;56,35136229;37,52115422;0,00000000;
23:08:04:887;-0,2322;0,1196;0,0772;56,35136229;37,52115422;0,00000000;
23:08:04:889;-0,2738;0,1248;-0,1838;56,35136229;37,52115422;0,00000000;
23:08:04:892;-0,2738;0,1248;-0,1838;56,35136229;37,52115422;0,00000000;
23:08:04:968;-0,2738;0,1248;-0,1838;56,35136229;37,52115422;0,00000000;
23:08:04:970;-0,2738;0,1248;-0,1838;56,35136229;37,52115422;0,00000000;
23:08:04:972;-0,3043;0,1647;-0,1445;56,35136229;37,52115422;0,00000000;
23:08:05:030;-0,3043;0,1647;-0,1445;56,35136229;37,52115422;0,00000000;
23:08:05:032;-0,3043;0,1647;-0,1445;56,35136229;37,52115422;0,00000000;
23:08:05:036;-0,3536;0,1035;0,0096;56,35136229;37,52115422;0,00000000;
23:08:05:088;-0,3536;0,1035;0,0096;56,35136229;37,52115422;0,00000000;
23:08:05:089;-0,3536;0,1035;0,0096;56,35136229;37,52115422;0,00000000;
23:08:05:090;-0,2053;0,0854;0,1170;56,35136229;37,52115422;0,00000000;
23:08:05:142;-0,2053;0,0854;0,1170;56,35136229;37,52115422;0,00000000;
23:08:05:144;-0,2053;0,0854;0,1170;56,35136229;37,52115422;0,00000000;
23:08:05:145;-0,1380;0,0908;-0,0481;56,35136229;37,52115422;0,00000000;
23:08:05:170;-0,1380;0,0908;-0,0481;56,35136229;37,52115422;0,00000000;
23:08:05:172;-0,1492;0,0810;-0,0479;56,35136229;37,52115422;0,00000000;
23:08:05:230;-0,1492;0,0810;-0,0479;56,35136229;37,52115422;0,00000000;
23:08:05:233;-0,1492;0,0810;-0,0479;56,35136229;37,52115422;0,00000000;
23:08:05:235;-0,2502;0,1746;-0,3053;56,35136229;37,52115422;0,00000000;
23:08:05:289;-0,2502;0,1746;-0,3053;56,35136229;37,52115422;0,00000000;
23:08:05:294;-0,2502;0,1746;-0,3053;56,35136229;37,52115422;0,00000000;
23:08:05:298;-0,1017;0,2266;-0,5667;56,35136229;37,52115422;0,00000000;
23:08:05:351;-0,1017;0,2266;-0,5667;56,35136229;37,52115422;0,00000000;
23:08:05:353;-0,1500;0,2763;-0,7385;56,35136229;37,52115422;0,00000000;
23:08:05:356;-0,1500;0,2763;-0,7385;56,35136229;37,52115422;0,00000000;
23:08:05:410;-0,1500;0,2763;-0,7385;56,35136229;37,52115422;0,00000000;
23:08:05:412;-0,1500;0,2763;-0,7385;56,35136229;37,52115422;0,00000000;
23:08:05:414;0,0031;0,1895;-0,0682;56,35136229;37,52115422;0,00000000;
23:08:05:434;0,0031;0,1895;-0,0682;56,35136229;37,52115422;0,00000000;
23:08:05:491;0,0031;0,1895;-0,0682;56,35136229;37,52115422;0,00000000;
23:08:05:493;0,0031;0,1895;-0,0682;56,35136229;37,52115422;0,00000000;
23:08:05:494;0,1839;0,1741;-0,1244;56,35136229;37,52115422;0,00000000;
23:08:05:552;0,1839;0,1741;-0,1244;56,35136229;37,52115422;0,00000000;
23:08:05:554;0,1839;0,1741;-0,1244;56,35136229;37,52115422;0,00000000;
23:08:05:555;0,3347;0,0131;0,2848;56,35136229;37,52115422;0,00000000;
23:08:05:611;0,3347;0,0131;0,2848;56,35136229;37,52115422;0,00000000;
23:08:05:613;0,3347;0,0131;0,2848;56,35136229;37,52115422;0,00000000;
23:08:05:615;0,2816;-0,0383;0,5937;56,35136229;37,52115422;0,00000000;
23:08:05:670;0,2816;-0,0383;0,5937;56,35136229;37,52115422;0,00000000;
23:08:05:672;0,2816;-0,0383;0,5937;56,35136229;37,52115422;0,00000000;
23:08:05:674;0,2991;-0,0233;0,7357;56,35136229;37,52115422;0,00000000;
23:08:05:752;0,2991;-0,0233;0,7357;56,35136229;37,52115422;0,00000000;
23:08:05:754;0,2991;-0,0233;0,7357;56,39338177;37,52819676;10,80000019;
23:08:05:757;0,3860;-0,1079;0,5167;56,39338177;37,52819676;10,80000019;
23:08:05:811;0,3860;-0,1079;0,5167;56,39338177;37,52819676;10,80000019;
23:08:05:814;0,2876;-0,0085;0,1912;56,39338177;37,52819676;10,80000019;
23:08:05:818;0,2876;-0,0085;0,1912;56,39338177;37,52819676;10,80000019;
23:08:05:872;0,2876;-0,0085;0,1912;56,39338177;37,52819676;10,80000019;
23:08:05:874;0,2876;-0,0085;0,1912;56,39338177;37,52819676;10,80000019;
23:08:05:876;0,2252;0,0613;-0,1454;56,39338177;37,52819676;10,80000019;
23:08:05:933;0,2252;0,0613;-0,1454;56,39338177;37,52819676;10,80000019;
23:08:05:936;0,2252;0,0613;-0,1454;56,39338177;37,52819676;10,80000019;
23:08:05:937;0,0741;0,1580;-0,4396;56,39338177;37,52819676;10,80000019;
23:08:05:955;0,0741;0,1580;-0,4396;56,39338177;37,52819676;10,80000019;
23:08:05:958;0,0698;0,1855;-0,4274;56,39338177;37,52819676;10,80000019;
23:08:06:013;0,0698;0,1855;-0,4274;56,39338177;37,52819676;10,80000019;
23:08:06:016;0,0698;0,1855;-0,4274;56,39338177;37,52819676;10,80000019;
23:08:06:018;0,0705;-0,0071;0,0668;56,39338177;37,52819676;10,80000019;
23:08:06:073;0,0705;-0,0071;0,0668;56,39338177;37,52819676;10,80000019;
23:08:06:076;0,0705;-0,0071;0,0668;56,39338177;37,52819676;10,80000019;
23:08:06:078;0,1699;-0,0129;0,1090;56,39338177;37,52819676;10,80000019;
23:08:06:134;0,1699;-0,0129;0,1090;56,39338177;37,52819676;10,80000019;
23:08:06:137;0,1699;-0,0129;0,1090;56,39338177;37,52819676;10,80000019;
23:08:06:139;0,1437;0,0098;0,0880;56,39338177;37,52819676;10,80000019;
23:08:06:194;0,1437;0,0098;0,0880;56,39338177;37,52819676;10,80000019;
23:08:06:198;0,1437;0,0098;0,0880;56,39338177;37,52819676;10,80000019;
23:08:06:199;0,1210;-0,0568;-0,1006;56,39338177;37,52819676;10,80000019;
23:08:06:217;0,1210;-0,0568;-0,1006;56,39338177;37,52819676;10,80000019;
23:08:06:274;0,1210;-0,0568;-0,1006;56,39338177;37,52819676;10,80000019;
23:08:06:277;0,1210;-0,0568;-0,1006;56,39338177;37,52819676;10,80000019;
23:08:06:279;0,2551;0,0303;-0,0489;56,39338177;37,52819676;10,80000019;
23:08:06:334;0,2551;0,0303;-0,0489;56,39338177;37,52819676;10,80000019;
23:08:06:337;0,2551;0,0303;-0,0489;56,39338177;37,52819676;10,80000019;
23:08:06:339;0,2526;0,0023;-0,1029;56,39338177;37,52819676;10,80000019;
23:08:06:395;0,2526;0,0023;-0,1029;56,39338177;37,52819676;10,80000019;
23:08:06:398;0,2526;0,0023;-0,1029;56,39338177;37,52819676;10,80000019;
23:08:06:400;0,2589;-0,0382;0,1795;56,39338177;37,52819676;10,80000019;
23:08:06:455;0,1999;-0,0420;0,0675;56,39338177;37,52819676;10,80000019;
23:08:06:458;0,1999;-0,0420;0,0675;56,39338177;37,52819676;10,80000019;
23:08:06:460;0,1999;-0,0420;0,0675;56,39338177;37,52819676;10,80000019;
23:08:06:534;0,1999;-0,0420;0,0675;56,39338177;37,52819676;10,80000019;
23:08:06:536;0,1999;-0,0420;0,0675;56,39338177;37,52819676;10,80000019;
23:08:06:537;0,2225;0,0013;-0,1195;56,39338177;37,52819676;10,80000019;
23:08:06:598;0,2225;0,0013;-0,1195;56,39338177;37,52819676;10,80000019;
23:08:06:601;0,2225;0,0013;-0,1195;56,39338177;37,52819676;10,80000019;
23:08:06:603;0,1542;-0,0190;-0,2505;56,39338177;37,52819676;10,80000019;
23:08:06:655;0,1542;-0,0190;-0,2505;56,39338177;37,52819676;10,80000019;
23:08:06:657;0,1542;-0,0190;-0,2505;56,39338177;37,52819676;10,80000019;
23:08:06:659;0,0682;-0,0790;0,0998;56,39338177;37,52819676;10,80000019;
23:08:06:715;0,0682;-0,0790;0,0998;56,39338177;37,52819676;10,80000019;
23:08:06:717;0,0682;-0,0790;0,0998;56,39356878;37,52828307;14,18000031;
23:08:06:719;0,1989;-0,0777;0,0924;56,39356878;37,52828307;14,18000031;
23:08:06:739;0,1989;-0,0777;0,0924;56,39356878;37,52828307;14,18000031;
23:08:06:741;0,1977;-0,0755;0,0909;56,39356878;37,52828307;14,18000031;
23:08:06:797;0,1977;-0,0755;0,0909;56,39356878;37,52828307;14,18000031;
23:08:06:800;0,1977;-0,0755;0,0909;56,39356878;37,52828307;14,18000031;
23:08:06:801;0,1495;-0,0822;0,1167;56,39356878;37,52828307;14,18000031;
23:08:06:858;0,1495;-0,0822;0,1167;56,39356878;37,52828307;14,18000031;
23:08:06:860;0,1495;-0,0822;0,1167;56,39356878;37,52828307;14,18000031;
23:08:06:862;0,1584;-0,0372;-0,0337;56,39356878;37,52828307;14,18000031;
23:08:06:918;0,1584;-0,0372;-0,0337;56,39356878;37,52828307;14,18000031;
23:08:06:921;0,1584;-0,0372;-0,0337;56,39356878;37,52828307;14,18000031;
23:08:06:923;0,1600;-0,0573;0,1121;56,39356878;37,52828307;14,18000031;
23:08:06:978;0,1600;-0,0573;0,1121;56,39356878;37,52828307;14,18000031;
23:08:06:980;0,1600;-0,0573;0,1121;56,39356878;37,52828307;14,18000031;
23:08:06:982;0,2217;-0,0042;0,0092;56,39356878;37,52828307;14,18000031;
23:08:07:002;0,2217;-0,0042;0,0092;56,39356878;37,52828307;14,18000031;
23:08:07:058;0,2217;-0,0042;0,0092;56,39356878;37,52828307;14,18000031;
23:08:07:061;0,1762;-0,0692;0,1583;56,39356878;37,52828307;14,18000031;
23:08:07:063;0,1762;-0,0692;0,1583;56,39356878;37,52828307;14,18000031;
23:08:07:119;0,1762;-0,0692;0,1583;56,39356878;37,52828307;14,18000031;
23:08:07:121;0,1762;-0,0692;0,1583;56,39356878;37,52828307;14,18000031;
23:08:07:124;0,2295;0,0024;-0,0975;56,39356878;37,52828307;14,18000031;
23:08:07:179;0,2295;0,0024;-0,0975;56,39356878;37,52828307;14,18000031;
23:08:07:182;0,2295;0,0024;-0,0975;56,39356878;37,52828307;14,18000031;
23:08:07:183;0,1619;0,0089;-0,0626;56,39356878;37,52828307;14,18000031;
23:08:07:240;0,1619;0,0089;-0,0626;56,39356878;37,52828307;14,18000031;
23:08:07:243;0,1619;0,0089;-0,0626;56,39356878;37,52828307;14,18000031;
23:08:07:245;0,1916;-0,0486;-0,0047;56,39356878;37,52828307;14,18000031;
23:08:07:320;0,1916;-0,0486;-0,0047;56,39356878;37,52828307;14,18000031;
23:08:07:323;0,1916;-0,0486;-0,0047;56,39356878;37,52828307;14,18000031;
23:08:07:325;0,2218;-0,0178;0,2317;56,39356878;37,52828307;14,18000031;
23:08:07:381;0,2218;-0,0178;0,2317;56,39356878;37,52828307;14,18000031;
23:08:07:384;0,2218;-0,0178;0,2317;56,39356878;37,52828307;14,18000031;
23:08:07:386;0,1435;-0,0100;-0,0433;56,39356878;37,52828307;14,18000031;
23:08:07:441;0,1435;-0,0100;-0,0433;56,39356878;37,52828307;14,18000031;
23:08:07:443;0,1435;-0,0100;-0,0433;56,39356878;37,52828307;14,18000031;
23:08:07:446;0,0941;0,0062;-0,1769;56,39356878;37,52828307;14,18000031;
23:08:07:501;0,0941;0,0062;-0,1769;56,39356878;37,52828307;14,18000031;
23:08:07:504;0,0941;0,0062;-0,1769;56,39356878;37,52828307;14,18000031;
23:08:07:506;0,1106;0,0032;0,0147;56,39356878;37,52828307;14,18000031;
23:08:07:524;0,1106;0,0032;0,0147;56,39356878;37,52828307;14,18000031;
23:08:07:527;0,1106;0,0104;0,0155;56,39356878;37,52828307;14,18000031;
23:08:07:581;0,1106;0,0104;0,0155;56,39356878;37,52828307;14,18000031;
23:08:07:584;0,1106;0,0104;0,0155;56,39356878;37,52828307;14,18000031;
23:08:07:586;0,1388;0,0279;0,0582;56,39356878;37,52828307;14,18000031;
23:08:07:640;0,1388;0,0279;0,0582;56,39356878;37,52828307;14,18000031;
23:08:07:643;0,1388;0,0279;0,0582;56,39356878;37,52828307;14,18000031;
23:08:07:645;0,0768;-0,0542;0,1079;56,39356878;37,52828307;14,18000031;
23:08:07:701;0,0768;-0,0542;0,1079;56,39356878;37,52828307;14,18000031;
23:08:07:703;0,0768;-0,0542;0,1079;56,39356277;37,52840375;14,50000000;
23:08:07:704;0,1634;-0,0217;0,1392;56,39356277;37,52840375;14,50000000;
23:08:07:760;0,1634;-0,0217;0,1392;56,39356277;37,52840375;14,50000000;
23:08:07:762;0,0956;-0,0148;0,1958;56,39356277;37,52840375;14,50000000;
23:08:07:764;0,0956;-0,0148;0,1958;56,39356277;37,52840375;14,50000000;
23:08:07:781;0,0956;-0,0148;0,1958;56,39356277;37,52840375;14,50000000;
23:08:07:840;0,0956;-0,0148;0,1958;56,39356277;37,52840375;14,50000000;
23:08:07:842;0,0956;-0,0148;0,1958;56,39356277;37,52840375;14,50000000;
23:08:07:843;0,1217;0,0239;-0,0148;56,39356277;37,52840375;14,50000000;
23:08:07:902;0,1217;0,0239;-0,0148;56,39356277;37,52840375;14,50000000;
23:08:07:903;0,0649;-0,0547;0,0769;56,39356277;37,52840375;14,50000000;
23:08:07:905;0,0649;-0,0547;0,0769;56,39356277;37,52840375;14,50000000;
23:08:07:962;0,0649;-0,0547;0,0769;56,39356277;37,52840375;14,50000000;
23:08:07:963;0,0649;-0,0547;0,0769;56,39356277;37,52840375;14,50000000;
23:08:07:964;0,0622;0,0840;-0,3207;56,39356277;37,52840375;14,50000000;
23:08:08:022;0,0622;0,0840;-0,3207;56,39356277;37,52840375;14,50000000;
23:08:08:024;0,0622;0,0840;-0,3207;56,39356277;37,52840375;14,50000000;
23:08:08:025;-0,0829;0,0482;-0,3213;56,39356277;37,52840375;14,50000000;
23:08:08:102;-0,0829;0,0482;-0,3213;56,39356277;37,52840375;14,50000000;
23:08:08:104;-0,0829;0,0482;-0,3213;56,39356277;37,52840375;14,50000000;
23:08:08:107;0,0499;-0,0073;-0,0037;56,39356277;37,52840375;14,50000000;
23:08:08:163;0,0499;-0,0073;-0,0037;56,39356277;37,52840375;14,50000000;
23:08:08:165;0,0499;-0,0073;-0,0037;56,39356277;37,52840375;14,50000000;
23:08:08:167;0,0749;0,0057;0,0614;56,39356277;37,52840375;14,50000000;
23:08:08:223;0,0749;0,0057;0,0614;56,39356277;37,52840375;14,50000000;
23:08:08:227;0,1512;-0,0647;0,2854;56,39356277;37,52840375;14,50000000;
23:08:08:229;0,1512;-0,0647;0,2854;56,39356277;37,52840375;14,50000000;
23:08:08:285;0,1512;-0,0647;0,2854;56,39356277;37,52840375;14,50000000;
23:08:08:287;0,1512;-0,0647;0,2854;56,39356277;37,52840375;14,50000000;
23:08:08:289;0,1117;-0,0392;0,3788;56,39356277;37,52840375;14,50000000;
23:08:08:308;0,1117;-0,0392;0,3788;56,39356277;37,52840375;14,50000000;
23:08:08:313;0,1087;-0,0564;0,3700;56,39356277;37,52840375;14,50000000;
23:08:08:364;0,1087;-0,0564;0,3700;56,39356277;37,52840375;14,50000000;
23:08:08:365;0,1087;-0,0564;0,3700;56,39356277;37,52840375;14,50000000;
23:08:08:367;0,1453;-0,0137;-0,0241;56,39356277;37,52840375;14,50000000;
23:08:08:424;0,1453;-0,0137;-0,0241;56,39356277;37,52840375;14,50000000;
23:08:08:425;0,1453;-0,0137;-0,0241;56,39356277;37,52840375;14,50000000;
23:08:08:426;0,1529;-0,0351;0,2545;56,39356277;37,52840375;14,50000000;
23:08:08:485;0,1529;-0,0351;0,2545;56,39356277;37,52840375;14,50000000;
23:08:08:488;0,1529;-0,0351;0,2545;56,39356277;37,52840375;14,50000000;
23:08:08:490;0,2307;-0,0389;0,1510;56,39356277;37,52840375;14,50000000;
23:08:08:546;0,2307;-0,0389;0,1510;56,39356277;37,52840375;14,50000000;
23:08:08:548;0,2307;-0,0389;0,1510;56,39356277;37,52840375;14,50000000;
23:08:08:550;0,1675;0,0086;0,1933;56,39356277;37,52840375;14,50000000;
23:08:08:567;0,1675;0,0086;0,1933;56,39356277;37,52840375;14,50000000;
23:08:08:626;0,1675;0,0086;0,1933;56,39356277;37,52840375;14,50000000;
23:08:08:630;0,1675;0,0086;0,1933;56,39356277;37,52840375;14,50000000;
23:08:08:632;0,1737;-0,0228;0,0009;56,39356277;37,52840375;14,50000000;
23:08:08:686;0,1737;-0,0228;0,0009;56,39356277;37,52840375;14,50000000;
23:08:08:688;0,1737;-0,0228;0,0009;56,39372310;37,52846351;14,68000031;
23:08:08:690;0,1899;0,0011;0,0339;56,39372310;37,52846351;14,68000031;
23:08:08:746;0,1899;0,0011;0,0339;56,39372310;37,52846351;14,68000031;
23:08:08:748;0,1899;0,0011;0,0339;56,39372310;37,52846351;14,68000031;
23:08:08:750;0,1271;0,0015;-0,2461;56,39372310;37,52846351;14,68000031;
23:08:08:807;0,1271;0,0015;-0,2461;56,39372310;37,52846351;14,68000031;
23:08:08:810;0,1271;0,0015;-0,2461;56,39372310;37,52846351;14,68000031;
23:08:08:812;0,0022;0,0589;-0,2902;56,39372310;37,52846351;14,68000031;
23:08:08:887;0,0022;0,0589;-0,2902;56,39372310;37,52846351;14,68000031;
23:08:08:889;0,0022;0,0589;-0,2902;56,39372310;37,52846351;14,68000031;
23:08:08:891;0,2356;-0,0502;-0,0296;56,39372310;37,52846351;14,68000031;
23:08:08:947;0,2356;-0,0502;-0,0296;56,39372310;37,52846351;14,68000031;
23:08:08:950;0,2356;-0,0502;-0,0296;56,39372310;37,52846351;14,68000031;
23:08:08:953;0,1310;0,0266;-0,1076;56,39372310;37,52846351;14,68000031;
23:08:09:008;0,1310;0,0266;-0,1076;56,39372310;37,52846351;14,68000031;
23:08:09:010;0,1310;0,0266;-0,1076;56,39372310;37,52846351;14,68000031;
23:08:09:012;0,1531;0,0428;-0,2694;56,39372310;37,52846351;14,68000031;
23:08:09:069;0,1531;0,0428;-0,2694;56,39372310;37,52846351;14,68000031;
23:08:09:071;0,1531;0,0428;-0,2694;56,39372310;37,52846351;14,68000031;
23:08:09:073;0,0804;0,0445;-0,1339;56,39372310;37,52846351;14,68000031;
23:08:09:091;0,0804;0,0445;-0,1339;56,39372310;37,52846351;14,68000031;
23:08:09:093;0,0724;0,0446;-0,1183;56,39372310;37,52846351;14,68000031;
23:08:09:149;0,0724;0,0446;-0,1183;56,39372310;37,52846351;14,68000031;
23:08:09:151;0,0724;0,0446;-0,1183;56,39372310;37,52846351;14,68000031;
23:08:09:153;0,1140;-0,0469;-0,1783;56,39372310;37,52846351;14,68000031;
23:08:09:208;0,1140;-0,0469;-0,1783;56,39372310;37,52846351;14,68000031;
23:08:09:210;0,1140;-0,0469;-0,1783;56,39372310;37,52846351;14,68000031;
23:08:09:211;0,0947;-0,0375;0,3941;56,39372310;37,52846351;14,68000031;
23:08:09:270;0,0947;-0,0375;0,3941;56,39372310;37,52846351;14,68000031;
23:08:09:272;0,0947;-0,0375;0,3941;56,39372310;37,52846351;14,68000031;
23:08:09:274;0,1103;-0,0761;-0,0342;56,39372310;37,52846351;14,68000031;
23:08:09:330;0,1103;-0,0761;-0,0342;56,39372310;37,52846351;14,68000031;
23:08:09:332;0,1103;-0,0761;-0,0342;56,39372310;37,52846351;14,68000031;
23:08:09:334;0,1443;0,0051;0,1897;56,39372310;37,52846351;14,68000031;
23:08:09:352;0,1443;0,0051;0,1897;56,39372310;37,52846351;14,68000031;
23:08:09:411;0,1443;0,0051;0,1897;56,39372310;37,52846351;14,68000031;
23:08:09:413;0,1443;0,0051;0,1897;56,39372310;37,52846351;14,68000031;
23:08:09:415;0,0106;-0,0502;-0,0757;56,39372310;37,52846351;14,68000031;
23:08:09:470;0,0106;-0,0502;-0,0757;56,39372310;37,52846351;14,68000031;
23:08:09:473;0,0106;-0,0502;-0,0757;56,39372310;37,52846351;14,68000031;
23:08:09:478;0,1815;0,0163;0,2038;56,39372310;37,52846351;14,68000031;
23:08:09:531;0,1815;0,0163;0,2038;56,39372310;37,52846351;14,68000031;
23:08:09:533;0,1815;0,0163;0,2038;56,39372310;37,52846351;14,68000031;
23:08:09:534;0,0771;-0,0220;0,0157;56,39372310;37,52846351;14,68000031;
23:08:09:592;0,0771;-0,0220;0,0157;56,39372310;37,52846351;14,68000031;
23:08:09:594;0,0771;-0,0220;0,0157;56,39372310;37,52846351;14,68000031;
23:08:09:599;0,0834;-0,0089;0,1944;56,39372310;37,52846351;14,68000031;
23:08:09:671;0,0834;-0,0089;0,1944;56,39372310;37,52846351;14,68000031;
23:08:09:673;0,0834;-0,0089;0,1944;56,39383186;37,52854915;15,13000011;
23:08:09:676;0,1128;-0,0262;-0,0059;56,39383186;37,52854915;15,13000011;
23:08:09:732;0,1128;-0,0262;-0,0059;56,39383186;37,52854915;15,13000011;
23:08:09:734;0,1128;-0,0262;-0,0059;56,39383186;37,52854915;15,13000011;
23:08:09:736;0,1448;-0,0621;0,1860;56,39383186;37,52854915;15,13000011;
23:08:09:793;0,1448;-0,0621;0,1860;56,39383186;37,52854915;15,13000011;
23:08:09:796;0,1448;-0,0621;0,1860;56,39383186;37,52854915;15,13000011;
23:08:09:798;-0,0117;-0,0254;0,0171;56,39383186;37,52854915;15,13000011;
23:08:09:853;-0,0117;-0,0254;0,0171;56,39383186;37,52854915;15,13000011;
23:08:09:856;-0,0117;-0,0254;0,0171;56,39383186;37,52854915;15,13000011;
23:08:09:858;-0,0147;-0,0137;0,0201;56,39383186;37,52854915;15,13000011;
23:08:09:877;-0,0180;-0,0132;0,0180;56,39383186;37,52854915;15,13000011;
23:08:09:879;-0,0180;-0,0132;0,0180;56,39383186;37,52854915;15,13000011;
23:08:09:933;-0,0180;-0,0132;0,0180;56,39383186;37,52854915;15,13000011;
23:08:09:936;-0,0180;-0,0132;0,0180;56,39383186;37,52854915;15,13000011;
23:08:09:940;-0,0037;-0,0768;-0,0117;56,39383186;37,52854915;15,13000011;
23:08:09:994;-0,0037;-0,0768;-0,0117;56,39383186;37,52854915;15,13000011;
23:08:09:996;-0,0037;-0,0768;-0,0117;56,39383186;37,52854915;15,13000011;
23:08:09:998;0,1112;-0,0498;0,2830;56,39383186;37,52854915;15,13000011;
23:08:10:054;0,1112;-0,0498;0,2830;56,39383186;37,52854915;15,13000011;
23:08:10:057;0,1112;-0,0498;0,2830;56,39383186;37,52854915;15,13000011;
23:08:10:059;-0,0504;-0,1172;0,1792;56,39383186;37,52854915;15,13000011;
23:08:10:115;-0,0504;-0,1172;0,1792;56,39383186;37,52854915;15,13000011;
23:08:10:117;-0,0504;-0,1172;0,1792;56,39383186;37,52854915;15,13000011;
23:08:10:119;0,0044;-0,0618;0,1237;56,39383186;37,52854915;15,13000011;
23:08:10:138;0,0044;-0,0618;0,1237;56,39383186;37,52854915;15,13000011;
23:08:10:194;0,0044;-0,0618;0,1237;56,39383186;37,52854915;15,13000011;
23:08:10:199;0,0044;-0,0618;0,1237;56,39383186;37,52854915;15,13000011;
23:08:10:201;0,0920;-0,0592;-0,0378;56,39383186;37,52854915;15,13000011;
23:08:10:256;0,0920;-0,0592;-0,0378;56,39383186;37,52854915;15,13000011;
23:08:10:258;0,0920;-0,0592;-0,0378;56,39383186;37,52854915;15,13000011;
23:08:10:260;-0,1377;-0,0097;-0,0596;56,39383186;37,52854915;15,13000011;
23:08:10:316;-0,1377;-0,0097;-0,0596;56,39383186;37,52854915;15,13000011;
23:08:10:318;-0,1377;-0,0097;-0,0596;56,39383186;37,52854915;15,13000011;
23:08:10:320;-0,0232;-0,0715;-0,0645;56,39383186;37,52854915;15,13000011;
23:08:10:375;-0,0232;-0,0715;-0,0645;56,39383186;37,52854915;15,13000011;
23:08:10:377;-0,0232;-0,0715;-0,0645;56,39383186;37,52854915;15,13000011;
23:08:10:379;0,0699;0,0020;0,1056;56,39383186;37,52854915;15,13000011;
23:08:10:456;0,0699;0,0020;0,1056;56,39383186;37,52854915;15,13000011;
23:08:10:459;0,0699;0,0020;0,1056;56,39383186;37,52854915;15,13000011;
23:08:10:460;0,1011;-0,0560;0,0287;56,39383186;37,52854915;15,13000011;
23:08:10:517;0,1011;-0,0560;0,0287;56,39383186;37,52854915;15,13000011;
23:08:10:520;0,1011;-0,0560;0,0287;56,39383186;37,52854915;15,13000011;
23:08:10:522;-0,0008;-0,0054;-0,0787;56,39383186;37,52854915;15,13000011;
23:08:10:577;-0,0008;-0,0054;-0,0787;56,39383186;37,52854915;15,13000011;
23:08:10:579;-0,0008;-0,0054;-0,0787;56,39383186;37,52854915;15,13000011;
23:08:10:582;-0,1098;-0,0242;-0,2291;56,39383186;37,52854915;15,13000011;
23:08:10:638;-0,1098;-0,0242;-0,2291;56,39383186;37,52854915;15,13000011;
23:08:10:640;-0,1098;-0,0242;-0,2291;56,39383186;37,52854915;15,13000011;
23:08:10:644;-0,0777;-0,0401;-0,1085;56,39383186;37,52854915;15,13000011;
23:08:10:663;-0,0777;-0,0401;-0,1085;56,39383186;37,52854915;15,13000011;
23:08:10:668;-0,0867;-0,0317;-0,1050;56,39394551;37,52862394;14,46000004;
23:08:10:717;-0,0867;-0,0317;-0,1050;56,39394551;37,52862394;14,46000004;
23:08:10:719;-0,0867;-0,0317;-0,1050;56,39394551;37,52862394;14,46000004;
23:08:10:721;0,0306;0,0295;-0,1589;56,39394551;37,52862394;14,46000004;
23:08:10:777;0,0306;0,0295;-0,1589;56,39394551;37,52862394;14,46000004;
23:08:10:780;0,0306;0,0295;-0,1589;56,39394551;37,52862394;14,46000004;
23:08:10:783;-0,0378;-0,0118;-0,0433;56,39394551;37,52862394;14,46000004;
23:08:10:838;-0,0378;-0,0118;-0,0433;56,39394551;37,52862394;14,46000004;
23:08:10:841;-0,0378;-0,0118;-0,0433;56,39394551;37,52862394;14,46000004;
23:08:10:843;-0,0085;-0,0106;-0,1422;56,39394551;37,52862394;14,46000004;
23:08:10:899;-0,0085;-0,0106;-0,1422;56,39394551;37,52862394;14,46000004;
23:08:10:901;-0,0085;-0,0106;-0,1422;56,39394551;37,52862394;14,46000004;
23:08:10:904;-0,0492;0,0074;-0,0844;56,39394551;37,52862394;14,46000004;
23:08:10:927;-0,0492;0,0074;-0,0844;56,39394551;37,52862394;14,46000004;
23:08:10:979;-0,0492;0,0074;-0,0844;56,39394551;37,52862394;14,46000004;
23:08:10:982;-0,0492;0,0074;-0,0844;56,39394551;37,52862394;14,46000004;
23:08:10:984;0,0079;-0,0067;-0,1976;56,39394551;37,52862394;14,46000004;
23:08:11:040;0,0079;-0,0067;-0,1976;56,39394551;37,52862394;14,46000004;
23:08:11:042;0,0079;-0,0067;-0,1976;56,39394551;37,52862394;14,46000004;
23:08:11:044;0,0887;-0,0234;0,3309;56,39394551;37,52862394;14,46000004;
23:08:11:099;0,0887;-0,0234;0,3309;56,39394551;37,52862394;14,46000004;
23:08:11:102;0,0887;-0,0234;0,3309;56,39394551;37,52862394;14,46000004;
23:08:11:104;0,0095;0,0362;-0,0671;56,39394551;37,52862394;14,46000004;
23:08:11:160;0,0095;0,0362;-0,0671;56,39394551;37,52862394;14,46000004;
23:08:11:163;0,0095;0,0362;-0,0671;56,39394551;37,52862394;14,46000004;
23:08:11:165;0,0303;0,0199;-0,0677;56,39394551;37,52862394;14,46000004;
23:08:11:240;0,0303;0,0199;-0,0677;56,39394551;37,52862394;14,46000004;
23:08:11:243;0,0303;0,0199;-0,0677;56,39394551;37,52862394;14,46000004;
23:08:11:244;0,0096;0,0644;-0,4034;56,39394551;37,52862394;14,46000004;
23:08:11:301;0,0096;0,0644;-0,4034;56,39394551;37,52862394;14,46000004;
23:08:11:303;0,0096;0,0644;-0,4034;56,39394551;37,52862394;14,46000004;
23:08:11:306;-0,0023;0,0709;-0,1623;56,39394551;37,52862394;14,46000004;
23:08:11:361;-0,0023;0,0709;-0,1623;56,39394551;37,52862394;14,46000004;
23:08:11:363;-0,0023;0,0709;-0,1623;56,39394551;37,52862394;14,46000004;
23:08:11:376;-0,0189;0,0484;-0,1790;56,39394551;37,52862394;14,46000004;
23:08:11:422;-0,0189;0,0484;-0,1790;56,39394551;37,52862394;14,46000004;
23:08:11:424;-0,0189;0,0484;-0,1790;56,39394551;37,52862394;14,46000004;
23:08:11:426;0,0575;0,1173;-0,3882;56,39394551;37,52862394;14,46000004;
23:08:11:445;0,0575;0,1173;-0,3882;56,39394551;37,52862394;14,46000004;
23:08:11:448;0,0731;0,1296;-0,3807;56,39394551;37,52862394;14,46000004;
23:08:11:502;0,0731;0,1296;-0,3807;56,39394551;37,52862394;14,46000004;
23:08:11:504;0,0731;0,1296;-0,3807;56,39394551;37,52862394;14,46000004;
23:08:11:506;0,0530;0,0590;-0,1718;56,39394551;37,52862394;14,46000004;
23:08:11:562;0,0530;0,0590;-0,1718;56,39394551;37,52862394;14,46000004;
23:08:11:565;0,0530;0,0590;-0,1718;56,39394551;37,52862394;14,46000004;
23:08:11:567;0,0066;-0,0365;0,0609;56,39394551;37,52862394;14,46000004;
23:08:11:622;0,0066;-0,0365;0,0609;56,39394551;37,52862394;14,46000004;
23:08:11:625;0,0066;-0,0365;0,0609;56,39394551;37,52862394;14,46000004;
23:08:11:627;-0,0633;0,0061;0,2391;56,39394551;37,52862394;14,46000004;
23:08:11:682;-0,0633;0,0061;0,2391;56,39394551;37,52862394;14,46000004;
23:08:11:685;-0,0633;0,0061;0,2391;56,39409010;37,52867225;15,07999992;
23:08:11:686;-0,0120;-0,0266;0,3794;56,39409010;37,52867225;15,07999992;
23:08:11:707;-0,0120;-0,0266;0,3794;56,39409010;37,52867225;15,07999992;
23:08:11:763;-0,0120;-0,0266;0,3794;56,39409010;37,52867225;15,07999992;
23:08:11:766;-0,0120;-0,0266;0,3794;56,39409010;37,52867225;15,07999992;
23:08:11:768;0,0026;-0,0921;0,9584;56,39409010;37,52867225;15,07999992;
23:08:11:823;0,0026;-0,0921;0,9584;56,39409010;37,52867225;15,07999992;
23:08:11:826;0,0026;-0,0921;0,9584;56,39409010;37,52867225;15,07999992;
23:08:11:828;0,1409;-0,0010;0,2998;56,39409010;37,52867225;15,07999992;
23:08:11:883;0,1409;-0,0010;0,2998;56,39409010;37,52867225;15,07999992;
23:08:11:887;0,1409;-0,0010;0,2998;56,39409010;37,52867225;15,07999992;
23:08:11:888;0,0698;-0,0224;-0,0590;56,39409010;37,52867225;15,07999992;
23:08:11:943;0,0698;-0,0224;-0,0590;56,39409010;37,52867225;15,07999992;
23:08:11:946;0,0698;-0,0224;-0,0590;56,39409010;37,52867225;15,07999992;
23:08:11:947;0,0050;0,1159;0,0744;56,39409010;37,52867225;15,07999992;
23:08:12:025;0,0050;0,1159;0,0744;56,39409010;37,52867225;15,07999992;
23:08:12:027;0,0050;0,1159;0,0744;56,39409010;37,52867225;15,07999992;
23:08:12:029;0,2077;0,0393;-0,4034;56,39409010;37,52867225;15,07999992;
23:08:12:084;0,2077;0,0393;-0,4034;56,39409010;37,52867225;15,07999992;
23:08:12:087;0,2077;0,0393;-0,4034;56,39409010;37,52867225;15,07999992;
23:08:12:089;0,0831;0,0133;-0,0631;56,39409010;37,52867225;15,07999992;
23:08:12:145;0,0831;0,0133;-0,0631;56,39409010;37,52867225;15,07999992;
23:08:12:148;0,0831;0,0133;-0,0631;56,39409010;37,52867225;15,07999992;
23:08:12:150;-0,0929;0,0924;-0,3378;56,39409010;37,52867225;15,07999992;
23:08:12:205;-0,0929;0,0924;-0,3378;56,39409010;37,52867225;15,07999992;
23:08:12:208;-0,0929;0,0924;-0,3378;56,39409010;37,52867225;15,07999992;
23:08:12:210;0,0657;0,1086;-0,3408;56,39409010;37,52867225;15,07999992;
23:08:12:230;0,0657;0,1086;-0,3408;56,39409010;37,52867225;15,07999992;
23:08:12:232;0,0826;0,1121;-0,3353;56,39409010;37,52867225;15,07999992;
23:08:12:286;0,0826;0,1121;-0,3353;56,39409010;37,52867225;15,07999992;
23:08:12:289;0,0826;0,1121;-0,3353;56,39409010;37,52867225;15,07999992;
23:08:12:291;0,0883;0,0375;0,0879;56,39409010;37,52867225;15,07999992;
23:08:12:345;0,0883;0,0375;0,0879;56,39409010;37,52867225;15,07999992;
23:08:12:348;0,0883;0,0375;0,0879;56,39409010;37,52867225;15,07999992;
23:08:12:349;0,1181;0,0947;-0,1294;56,39409010;37,52867225;15,07999992;
23:08:12:407;0,1181;0,0947;-0,1294;56,39409010;37,52867225;15,07999992;
23:08:12:409;0,1181;0,0947;-0,1294;56,39409010;37,52867225;15,07999992;
23:08:12:411;0,0628;0,0055;0,1141;56,39409010;37,52867225;15,07999992;
23:08:12:467;0,0628;0,0055;0,1141;56,39409010;37,52867225;15,07999992;
23:08:12:470;0,0628;0,0055;0,1141;56,39409010;37,52867225;15,07999992;
23:08:12:471;0,1564;0,0621;0,2310;56,39409010;37,52867225;15,07999992;
23:08:12:494;0,1564;0,0621;0,2310;56,39409010;37,52867225;15,07999992;
23:08:12:547;0,1564;0,0621;0,2310;56,39409010;37,52867225;15,07999992;
23:08:12:549;0,1254;0,0059;0,2959;56,39409010;37,52867225;15,07999992;
23:08:12:551;0,1254;0,0059;0,2959;56,39409010;37,52867225;15,07999992;
23:08:12:607;0,1254;0,0059;0,2959;56,39409010;37,52867225;15,07999992;
23:08:12:609;0,1254;0,0059;0,2959;56,39409010;37,52867225;15,07999992;
23:08:12:610;0,0586;-0,0003;0,2302;56,39409010;37,52867225;15,07999992;
23:08:12:668;0,0586;-0,0003;0,2302;56,39409010;37,52867225;15,07999992;
23:08:12:670;0,0926;0,0187;0,0049;56,39421813;37,52873806;15,30000019;
23:08:12:673;0,0926;0,0187;0,0049;56,39421813;37,52873806;15,30000019;
23:08:12:727;0,0926;0,0187;0,0049;56,39421813;37,52873806;15,30000019;
23:08:12:729;0,0926;0,0187;0,0049;56,39421813;37,52873806;15,30000019;
23:08:12:730;0,0375;0,0175;0,1871;56,39421813;37,52873806;15,30000019;
23:08:12:808;0,0375;0,0175;0,1871;56,39421813;37,52873806;15,30000019;
23:08:12:811;0,0375;0,0175;0,1871;56,39421813;37,52873806;15,30000019;
23:08:12:812;0,0704;-0,0154;0,1593;56,39421813;37,52873806;15,30000019;
23:08:12:869;0,0704;-0,0154;0,1593;56,39421813;37,52873806;15,30000019;
23:08:12:872;0,0704;-0,0154;0,1593;56,39421813;37,52873806;15,30000019;
23:08:12:873;0,0935;0,0697;-0,0668;56,39421813;37,52873806;15,30000019;
23:08:12:929;0,0935;0,0697;-0,0668;56,39421813;37,52873806;15,30000019;
23:08:12:932;0,0935;0,0697;-0,0668;56,39421813;37,52873806;15,30000019;
23:08:12:934;0,0278;0,0662;-0,4337;56,39421813;37,52873806;15,30000019;
23:08:12:989;0,0278;0,0662;-0,4337;56,39421813;37,52873806;15,30000019;
23:08:12:992;0,0278;0,0662;-0,4337;56,39421813;37,52873806;15,30000019;
23:08:12:994;0,0804;0,0614;-0,0348;56,39421813;37,52873806;15,30000019;
23:08:13:013;0,0804;0,0614;-0,0348;56,39421813;37,52873806;15,30000019;
23:08:13:015;0,0813;0,0719;-0,0327;56,39421813;37,52873806;15,30000019;
23:08:13:070;0,0813;0,0719;-0,0327;56,39421813;37,52873806;15,30000019;
23:08:13:073;0,0813;0,0719;-0,0327;56,39421813;37,52873806;15,30000019;
23:08:13:075;-0,0271;0,0248;-0,1195;56,39421813;37,52873806;15,30000019;
23:08:13:130;-0,0271;0,0248;-0,1195;56,39421813;37,52873806;15,30000019;
23:08:13:132;-0,0271;0,0248;-0,1195;56,39421813;37,52873806;15,30000019;
23:08:13:133;0,0074;0,0150;0,1264;56,39421813;37,52873806;15,30000019;
23:08:13:189;0,0074;0,0150;0,1264;56,39421813;37,52873806;15,30000019;
23:08:13:196;0,0074;0,0150;0,1264;56,39421813;37,52873806;15,30000019;
23:08:13:198;-0,0071;0,0042;0,2190;56,39421813;37,52873806;15,30000019;
23:08:13:250;-0,0071;0,0042;0,2190;56,39421813;37,52873806;15,30000019;
23:08:13:253;-0,0071;0,0042;0,2190;56,39421813;37,52873806;15,30000019;
23:08:13:255;0,0917;-0,0267;-0,0282;56,39421813;37,52873806;15,30000019;
23:08:13:278;0,0917;-0,0267;-0,0282;56,39421813;37,52873806;15,30000019;
23:08:13:332;-0,0296;0,0812;-0,2303;56,39421813;37,52873806;15,30000019;
23:08:13:337;-0,0296;0,0812;-0,2303;56,39421813;37,52873806;15,30000019;
23:08:13:338;-0,0296;0,0812;-0,2303;56,39421813;37,52873806;15,30000019;
23:08:13:391;-0,0296;0,0812;-0,2303;56,39421813;37,52873806;15,30000019;
23:08:13:394;-0,0296;0,0812;-0,2303;56,39421813;37,52873806;15,30000019;
23:08:13:396;-0,0214;0,0197;-0,0671;56,39421813;37,52873806;15,30000019;
23:08:13:451;-0,0214;0,0197;-0,0671;56,39421813;37,52873806;15,30000019;
23:08:13:454;-0,0214;0,0197;-0,0671;56,39421813;37,52873806;15,30000019;
23:08:13:457;0,0745;-0,0181;0,0232;56,39421813;37,52873806;15,30000019;
23:08:13:512;0,0745;-0,0181;0,0232;56,39421813;37,52873806;15,30000019;
23:08:13:515;0,0745;-0,0181;0,0232;56,39421813;37,52873806;15,30000019;
23:08:13:517;-0,0553;0,0101;0,1623;56,39421813;37,52873806;15,30000019;
23:08:13:592;-0,0553;0,0101;0,1623;56,39421813;37,52873806;15,30000019;
23:08:13:595;-0,0553;0,0101;0,1623;56,39421813;37,52873806;15,30000019;
23:08:13:597;0,0188;0,0103;-0,0886;56,39421813;37,52873806;15,30000019;
23:08:13:652;0,0188;0,0103;-0,0886;56,39421813;37,52873806;15,30000019;
23:08:13:655;0,0188;0,0103;-0,0886;56,39421813;37,52873806;15,30000019;
23:08:13:657;0,0016;0,0028;0,1753;56,39421813;37,52873806;15,30000019;
23:08:13:712;0,0016;0,0028;0,1753;56,39421813;37,52873806;15,30000019;
23:08:13:715;0,0016;0,0028;0,1753;56,39436975;37,52879965;15,39999962;
23:08:13:717;0,0090;-0,0589;0,1412;56,39436975;37,52879965;15,39999962;
23:08:13:773;0,0090;-0,0589;0,1412;56,39436975;37,52879965;15,39999962;
23:08:13:776;0,0090;-0,0589;0,1412;56,39436975;37,52879965;15,39999962;
23:08:13:778;0,0276;-0,0294;0,3249;56,39436975;37,52879965;15,39999962;
23:08:13:798;0,0397;-0,0378;0,3176;56,39436975;37,52879965;15,39999962;
23:08:13:801;0,0397;-0,0378;0,3176;56,39436975;37,52879965;15,39999962;
23:08:13:853;0,0397;-0,0378;0,3176;56,39436975;37,52879965;15,39999962;
23:08:13:856;0,0397;-0,0378;0,3176;56,39436975;37,52879965;15,39999962;
23:08:13:858;0,0794;-0,0531;0,2346;56,39436975;37,52879965;15,39999962;
23:08:13:914;0,0794;-0,0531;0,2346;56,39436975;37,52879965;15,39999962;
23:08:13:917;0,0794;-0,0531;0,2346;56,39436975;37,52879965;15,39999962;
23:08:13:919;-0,1070;0,0291;-0,1922;56,39436975;37,52879965;15,39999962;
23:08:13:975;-0,1070;0,0291;-0,1922;56,39436975;37,52879965;15,39999962;
23:08:13:977;-0,1070;0,0291;-0,1922;56,39436975;37,52879965;15,39999962;
23:08:13:979;-0,0229;0,0369;-0,0993;56,39436975;37,52879965;15,39999962;
23:08:14:035;-0,0229;0,0369;-0,0993;56,39436975;37,52879965;15,39999962;
23:08:14:038;-0,0229;0,0369;-0,0993;56,39436975;37,52879965;15,39999962;
23:08:14:039;0,0081;0,0334;-0,2138;56,39436975;37,52879965;15,39999962;
23:08:14:062;0,0081;0,0334;-0,2138;56,39436975;37,52879965;15,39999962;
23:08:14:114;0,0081;0,0334;-0,2138;56,39436975;37,52879965;15,39999962;
23:08:14:117;0,0081;0,0334;-0,2138;56,39436975;37,52879965;15,39999962;
23:08:14:118;-0,0236;-0,0188;-0,0775;56,39436975;37,52879965;15,39999962;
23:08:14:176;-0,0236;-0,0188;-0,0775;56,39436975;37,52879965;15,39999962;
23:08:14:179;-0,0236;-0,0188;-0,0775;56,39436975;37,52879965;15,39999962;
23:08:14:181;-0,0788;0,0099;0,0518;56,39436975;37,52879965;15,39999962;
23:08:14:236;-0,0788;0,0099;0,0518;56,39436975;37,52879965;15,39999962;
23:08:14:239;-0,0788;0,0099;0,0518;56,39436975;37,52879965;15,39999962;
23:08:14:241;-0,0885;0,0121;-0,0704;56,39436975;37,52879965;15,39999962;
23:08:14:296;-0,0885;0,0121;-0,0704;56,39436975;37,52879965;15,39999962;
23:08:14:299;-0,0885;0,0121;-0,0704;56,39436975;37,52879965;15,39999962;
23:08:14:301;-0,0612;0,0587;-0,1694;56,39436975;37,52879965;15,39999962;
23:08:14:377;-0,0612;0,0587;-0,1694;56,39436975;37,52879965;15,39999962;
23:08:14:379;-0,0612;0,0587;-0,1694;56,39436975;37,52879965;15,39999962;
23:08:14:381;-0,0604;0,0179;-0,1296;56,39436975;37,52879965;15,39999962;
23:08:14:437;-0,0604;0,0179;-0,1296;56,39436975;37,52879965;15,39999962;
23:08:14:440;-0,0604;0,0179;-0,1296;56,39436975;37,52879965;15,39999962;
23:08:14:441;-0,1524;0,0387;-0,0489;56,39436975;37,52879965;15,39999962;
23:08:14:496;-0,1524;0,0387;-0,0489;56,39436975;37,52879965;15,39999962;
23:08:14:499;-0,1524;0,0387;-0,0489;56,39436975;37,52879965;15,39999962;
23:08:14:501;0,0492;-0,0499;0,2989;56,39436975;37,52879965;15,39999962;
23:08:14:557;0,0492;-0,0499;0,2989;56,39436975;37,52879965;15,39999962;
23:08:14:559;0,0492;-0,0499;0,2989;56,39436975;37,52879965;15,39999962;
23:08:14:561;0,0031;-0,0448;0,2411;56,39436975;37,52879965;15,39999962;
23:08:14:583;0,0031;-0,0448;0,2411;56,39436975;37,52879965;15,39999962;
23:08:14:586;0,0055;-0,0556;0,2353;56,39436975;37,52879965;15,39999962;
23:08:14:637;0,0055;-0,0556;0,2353;56,39436975;37,52879965;15,39999962;
23:08:14:641;-0,0216;-0,0248;-0,0285;56,39436975;37,52879965;15,39999962;
23:08:14:643;-0,0216;-0,0248;-0,0285;56,39436975;37,52879965;15,39999962;
23:08:14:697;-0,0216;-0,0248;-0,0285;56,39436975;37,52879965;15,39999962;
23:08:14:700;-0,0216;-0,0248;-0,0285;56,39451765;37,52887894;15,77999973;
23:08:14:702;0,0360;0,0513;-0,1597;56,39451765;37,52887894;15,77999973;
23:08:14:757;0,0360;0,0513;-0,1597;56,39451765;37,52887894;15,77999973;
23:08:14:759;0,0360;0,0513;-0,1597;56,39451765;37,52887894;15,77999973;
23:08:14:760;0,0045;0,1474;-0,5073;56,39451765;37,52887894;15,77999973;
23:08:14:818;0,0045;0,1474;-0,5073;56,39451765;37,52887894;15,77999973;
23:08:14:821;0,0045;0,1474;-0,5073;56,39451765;37,52887894;15,77999973;
23:08:14:823;0,1177;0,0662;-0,1127;56,39451765;37,52887894;15,77999973;
23:08:14:845;0,1177;0,0662;-0,1127;56,39451765;37,52887894;15,77999973;
23:08:14:899;0,1177;0,0662;-0,1127;56,39451765;37,52887894;15,77999973;
23:08:14:902;0,1177;0,0662;-0,1127;56,39451765;37,52887894;15,77999973;
23:08:14:903;0,0703;0,1097;-0,4842;56,39451765;37,52887894;15,77999973;
23:08:14:959;0,0703;0,1097;-0,4842;56,39451765;37,52887894;15,77999973;
23:08:14:961;0,0703;0,1097;-0,4842;56,39451765;37,52887894;15,77999973;
23:08:14:963;0,0701;0,1785;-0,4774;56,39451765;37,52887894;15,77999973;
23:08:15:019;0,0701;0,1785;-0,4774;56,39451765;37,52887894;15,77999973;
23:08:15:022;0,0701;0,1785;-0,4774;56,39451765;37,52887894;15,77999973;
23:08:15:024;0,1060;-0,0118;-0,0122;56,39451765;37,52887894;15,77999973;
23:08:15:080;0,1060;-0,0118;-0,0122;56,39451765;37,52887894;15,77999973;
23:08:15:083;0,1060;-0,0118;-0,0122;56,39451765;37,52887894;15,77999973;
23:08:15:086;0,0578;-0,0162;0,5132;56,39451765;37,52887894;15,77999973;
23:08:15:160;0,0578;-0,0162;0,5132;56,39451765;37,52887894;15,77999973;
23:08:15:163;0,0578;-0,0162;0,5132;56,39451765;37,52887894;15,77999973;
23:08:15:164;0,1390;-0,1133;0,7757;56,39451765;37,52887894;15,77999973;
23:08:15:221;0,1390;-0,1133;0,7757;56,39451765;37,52887894;15,77999973;
23:08:15:224;0,1390;-0,1133;0,7757;56,39451765;37,52887894;15,77999973;
23:08:15:225;-0,0253;-0,0702;0,7118;56,39451765;37,52887894;15,77999973;
23:08:15:282;-0,0253;-0,0702;0,7118;56,39451765;37,52887894;15,77999973;
23:08:15:284;-0,0253;-0,0702;0,7118;56,39451765;37,52887894;15,77999973;
23:08:15:286;0,1234;-0,1425;0,7652;56,39451765;37,52887894;15,77999973;
23:08:15:341;0,1234;-0,1425;0,7652;56,39451765;37,52887894;15,77999973;
23:08:15:344;0,1234;-0,1425;0,7652;56,39451765;37,52887894;15,77999973;
23:08:15:346;0,0667;-0,0740;0,5334;56,39451765;37,52887894;15,77999973;
23:08:15:368;0,0667;-0,0740;0,5334;56,39451765;37,52887894;15,77999973;
23:08:15:372;0,0531;-0,0810;0,5235;56,39451765;37,52887894;15,77999973;
23:08:15:422;0,0531;-0,0810;0,5235;56,39451765;37,52887894;15,77999973;
23:08:15:425;0,0531;-0,0810;0,5235;56,39451765;37,52887894;15,77999973;
23:08:15:427;0,1186;-0,1301;0,4393;56,39451765;37,52887894;15,77999973;
23:08:15:482;0,1186;-0,1301;0,4393;56,39451765;37,52887894;15,77999973;
23:08:15:484;0,1186;-0,1301;0,4393;56,39451765;37,52887894;15,77999973;
23:08:15:488;0,1521;-0,0468;0,2403;56,39451765;37,52887894;15,77999973;
23:08:15:543;0,1521;-0,0468;0,2403;56,39451765;37,52887894;15,77999973;
23:08:15:546;0,1521;-0,0468;0,2403;56,39451765;37,52887894;15,77999973;
23:08:15:547;0,0438;-0,0576;-0,2079;56,39451765;37,52887894;15,77999973;
23:08:15:603;0,0438;-0,0576;-0,2079;56,39451765;37,52887894;15,77999973;
23:08:15:605;0,0438;-0,0576;-0,2079;56,39451765;37,52887894;15,77999973;
23:08:15:608;0,0188;-0,0039;-0,2318;56,39451765;37,52887894;15,77999973;
23:08:15:630;0,0188;-0,0039;-0,2318;56,39451765;37,52887894;15,77999973;
23:08:15:682;0,0188;-0,0039;-0,2318;56,39451765;37,52887894;15,77999973;
23:08:15:684;0,0188;-0,0039;-0,2318;56,39464256;37,52894278;15,68000031;
23:08:15:687;0,0495;-0,0943;-0,1002;56,39464256;37,52894278;15,68000031;
23:08:15:744;0,0495;-0,0943;-0,1002;56,39464256;37,52894278;15,68000031;
23:08:15:748;0,0495;-0,0943;-0,1002;56,39464256;37,52894278;15,68000031;
23:08:15:750;0,0425;-0,1452;-0,0967;56,39464256;37,52894278;15,68000031;
23:08:15:805;0,0425;-0,1452;-0,0967;56,39464256;37,52894278;15,68000031;
23:08:15:807;0,0425;-0,1452;-0,0967;56,39464256;37,52894278;15,68000031;
23:08:15:809;0,1323;-0,2975;0,0461;56,39464256;37,52894278;15,68000031;
23:08:15:864;0,1323;-0,2975;0,0461;56,39464256;37,52894278;15,68000031;
23:08:15:867;0,1323;-0,2975;0,0461;56,39464256;37,52894278;15,68000031;
23:08:15:869;0,1113;-0,3465;0,1862;56,39464256;37,52894278;15,68000031;
23:08:15:945;0,1113;-0,3465;0,1862;56,39464256;37,52894278;15,68000031;
23:08:15:947;0,1113;-0,3465;0,1862;56,39464256;37,52894278;15,68000031;
23:08:15:949;0,1168;-0,3627;-0,0200;56,39464256;37,52894278;15,68000031;
23:08:16:005;0,1168;-0,3627;-0,0200;56,39464256;37,52894278;15,68000031;
23:08:16:008;0,1168;-0,3627;-0,0200;56,39464256;37,52894278;15,68000031;
23:08:16:009;0,0463;-0,4566;-0,1385;56,39464256;37,52894278;15,68000031;
23:08:16:065;0,0463;-0,4566;-0,1385;56,39464256;37,52894278;15,68000031;
23:08:16:068;0,0463;-0,4566;-0,1385;56,39464256;37,52894278;15,68000031;
23:08:16:069;0,0942;-0,4181;-0,1590;56,39464256;37,52894278;15,68000031;
23:08:16:126;0,0942;-0,4181;-0,1590;56,39464256;37,52894278;15,68000031;
23:08:16:128;0,0942;-0,4181;-0,1590;56,39464256;37,52894278;15,68000031;
23:08:16:130;-0,0314;-0,3664;-0,3413;56,39464256;37,52894278;15,68000031;
23:08:16:152;-0,0314;-0,3664;-0,3413;56,39464256;37,52894278;15,68000031;
23:08:16:156;-0,0333;-0,3481;-0,3337;56,39464256;37,52894278;15,68000031;
23:08:16:206;-0,0333;-0,3481;-0,3337;56,39464256;37,52894278;15,68000031;
23:08:16:208;-0,0333;-0,3481;-0,3337;56,39464256;37,52894278;15,68000031;
23:08:16:210;0,0319;-0,3822;-0,0770;56,39464256;37,52894278;15,68000031;
23:08:16:266;0,0319;-0,3822;-0,0770;56,39464256;37,52894278;15,68000031;
23:08:16:269;0,0319;-0,3822;-0,0770;56,39464256;37,52894278;15,68000031;
23:08:16:271;0,0173;-0,3523;-0,0509;56,39464256;37,52894278;15,68000031;
23:08:16:327;0,0173;-0,3523;-0,0509;56,39464256;37,52894278;15,68000031;
23:08:16:329;0,0173;-0,3523;-0,0509;56,39464256;37,52894278;15,68000031;
23:08:16:331;0,0115;-0,3223;-0,0640;56,39464256;37,52894278;15,68000031;
23:08:16:387;0,0115;-0,3223;-0,0640;56,39464256;37,52894278;15,68000031;
23:08:16:389;0,0115;-0,3223;-0,0640;56,39464256;37,52894278;15,68000031;
23:08:16:391;-0,0670;-0,2668;0,0313;56,39464256;37,52894278;15,68000031;
23:08:16:414;-0,0670;-0,2668;0,0313;56,39464256;37,52894278;15,68000031;
23:08:16:467;-0,0670;-0,2668;0,0313;56,39464256;37,52894278;15,68000031;
23:08:16:470;-0,0670;-0,2668;0,0313;56,39464256;37,52894278;15,68000031;
23:08:16:472;0,0137;-0,2562;0,1595;56,39464256;37,52894278;15,68000031;
23:08:16:528;0,0137;-0,2562;0,1595;56,39464256;37,52894278;15,68000031;
23:08:16:531;0,0137;-0,2562;0,1595;56,39464256;37,52894278;15,68000031;
23:08:16:532;-0,0279;-0,2724;-0,0990;56,39464256;37,52894278;15,68000031;
23:08:16:588;-0,0279;-0,2724;-0,0990;56,39464256;37,52894278;15,68000031;
23:08:16:591;-0,0279;-0,2724;-0,0990;56,39464256;37,52894278;15,68000031;
23:08:16:593;-0,0561;-0,1627;-0,0330;56,39464256;37,52894278;15,68000031;
23:08:16:647;-0,0561;-0,1627;-0,0330;56,39464256;37,52894278;15,68000031;
23:08:16:650;-0,0561;-0,1627;-0,0330;56,39464256;37,52894278;15,68000031;
23:08:16:652;-0,0733;-0,1754;-0,4231;56,39464256;37,52894278;15,68000031;
23:08:16:728;-0,0733;-0,1754;-0,4231;56,39464256;37,52894278;15,68000031;
23:08:16:731;-0,0733;-0,1754;-0,4231;56,39477731;37,52900016;15,78999996;
23:08:16:733;-0,0421;-0,1533;-0,3800;56,39477731;37,52900016;15,78999996;
23:08:16:789;-0,0421;-0,1533;-0,3800;56,39477731;37,52900016;15,78999996;
23:08:16:792;-0,0421;-0,1533;-0,3800;56,39477731;37,52900016;15,78999996;
23:08:16:793;-0,0046;-0,2867;-0,0586;56,39477731;37,52900016;15,78999996;
23:08:16:849;-0,0046;-0,2867;-0,0586;56,39477731;37,52900016;15,78999996;
23:08:16:852;-0,0046;-0,2867;-0,0586;56,39477731;37,52900016;15,78999996;
23:08:16:854;-0,1504;-0,2561;-0,1474;56,39477731;37,52900016;15,78999996;
23:08:16:910;-0,1504;-0,2561;-0,1474;56,39477731;37,52900016;15,78999996;
23:08:16:912;-0,1504;-0,2561;-0,1474;56,39477731;37,52900016;15,78999996;
23:08:16:914;0,1868;-0,3468;0,0610;56,39477731;37,52900016;15,78999996;
23:08:16:939;0,1868;-0,3468;0,0610;56,39477731;37,52900016;15,78999996;
23:08:16:942;0,1854;-0,3466;0,0590;56,39477731;37,52900016;15,78999996;
23:08:16:990;0,1854;-0,3466;0,0590;56,39477731;37,52900016;15,78999996;
23:08:16:993;0,1854;-0,3466;0,0590;56,39477731;37,52900016;15,78999996;
23:08:16:994;0,0876;-0,2894;-0,1371;56,39477731;37,52900016;15,78999996;
23:08:17:050;0,0876;-0,2894;-0,1371;56,39477731;37,52900016;15,78999996;
23:08:17:053;0,0876;-0,2894;-0,1371;56,39477731;37,52900016;15,78999996;
23:08:17:054;0,0951;-0,2681;0,1608;56,39477731;37,52900016;15,78999996;
23:08:17:111;0,0951;-0,2681;0,1608;56,39477731;37,52900016;15,78999996;
23:08:17:113;0,0951;-0,2681;0,1608;56,39477731;37,52900016;15,78999996;
23:08:17:115;0,2018;-0,3915;-0,1197;56,39477731;37,52900016;15,78999996;
23:08:17:171;0,2018;-0,3915;-0,1197;56,39477731;37,52900016;15,78999996;
23:08:17:174;0,2018;-0,3915;-0,1197;56,39477731;37,52900016;15,78999996;
23:08:17:176;0,2067;-0,1890;-0,1967;56,39477731;37,52900016;15,78999996;
23:08:17:199;0,2067;-0,1890;-0,1967;56,39477731;37,52900016;15,78999996;
23:08:17:252;0,2067;-0,1890;-0,1967;56,39477731;37,52900016;15,78999996;
23:08:17:254;0,2067;-0,1890;-0,1967;56,39477731;37,52900016;15,78999996;
23:08:17:256;0,0460;-0,3229;0,0414;56,39477731;37,52900016;15,78999996;
23:08:17:312;0,0460;-0,3229;0,0414;56,39477731;37,52900016;15,78999996;
23:08:17:314;0,0460;-0,3229;0,0414;56,39477731;37,52900016;15,78999996;
23:08:17:316;0,1690;-0,3681;0,1422;56,39477731;37,52900016;15,78999996;
23:08:17:371;0,1690;-0,3681;0,1422;56,39477731;37,52900016;15,78999996;
23:08:17:375;0,1690;-0,3681;0,1422;56,39477731;37,52900016;15,78999996;
23:08:17:377;0,1532;-0,2326;0,2700;56,39477731;37,52900016;15,78999996;
23:08:17:432;0,1532;-0,2326;0,2700;56,39477731;37,52900016;15,78999996;
23:08:17:435;0,1532;-0,2326;0,2700;56,39477731;37,52900016;15,78999996;
23:08:17:437;0,1087;-0,3023;0,1611;56,39477731;37,52900016;15,78999996;
23:08:17:512;0,1087;-0,3023;0,1611;56,39477731;37,52900016;15,78999996;
23:08:17:515;0,1087;-0,3023;0,1611;56,39477731;37,52900016;15,78999996;
23:08:17:517;0,0745;-0,0280;-0,0515;56,39477731;37,52900016;15,78999996;
23:08:17:573;0,0745;-0,0280;-0,0515;56,39477731;37,52900016;15,78999996;
23:08:17:576;0,0745;-0,0280;-0,0515;56,39477731;37,52900016;15,78999996;
23:08:17:578;-0,0402;-0,0309;-0,0876;56,39477731;37,52900016;15,78999996;
23:08:17:634;-0,0402;-0,0309;-0,0876;56,39477731;37,52900016;15,78999996;
23:08:17:637;-0,0402;-0,0309;-0,0876;56,39477731;37,52900016;15,78999996;
23:08:17:640;0,0934;0,0119;-0,0392;56,39477731;37,52900016;15,78999996;
23:08:17:692;0,0934;0,0119;-0,0392;56,39477731;37,52900016;15,78999996;
23:08:17:695;0,0934;0,0119;-0,0392;56,39490884;37,52905835;15,19999981;
23:08:17:697;0,0052;0,0858;-0,0516;56,39490884;37,52905835;15,19999981;
23:08:17:720;0,0052;0,0858;-0,0516;56,39490884;37,52905835;15,19999981;
23:08:17:722;0,0060;0,0879;-0,0501;56,39490884;37,52905835;15,19999981;
23:08:17:777;0,0060;0,0879;-0,0501;56,39490884;37,52905835;15,19999981;
23:08:17:779;0,1271;0,0238;0,1063;56,39490884;37,52905835;15,19999981;
23:08:17:781;0,1271;0,0238;0,1063;56,39490884;37,52905835;15,19999981;
23:08:17:833;0,1271;0,0238;0,1063;56,39490884;37,52905835;15,19999981;
23:08:17:837;0,1271;0,0238;0,1063;56,39490884;37,52905835;15,19999981;
23:08:17:839;-0,0163;0,0321;0,0310;56,39490884;37,52905835;15,19999981;
23:08:17:896;-0,0163;0,0321;0,0310;56,39490884;37,52905835;15,19999981;
23:08:17:898;-0,0163;0,0321;0,0310;56,39490884;37,52905835;15,19999981;
23:08:17:899;0,1230;-0,0010;0,0151;56,39490884;37,52905835;15,19999981;
23:08:17:953;0,1230;-0,0010;0,0151;56,39490884;37,52905835;15,19999981;
23:08:17:954;0,1230;-0,0010;0,0151;56,39490884;37,52905835;15,19999981;
23:08:17:955;0,0817;0,1359;0,1207;56,39490884;37,52905835;15,19999981;
23:08:17:981;0,0817;0,1359;0,1207;56,39490884;37,52905835;15,19999981;
23:08:18:036;0,0817;0,1359;0,1207;56,39490884;37,52905835;15,19999981;
23:08:18:039;0,0817;0,1359;0,1207;56,39490884;37,52905835;15,19999981;
23:08:18:041;0,0518;0,1587;-0,2025;56,39490884;37,52905835;15,19999981;
23:08:18:094;0,0518;0,1587;-0,2025;56,39490884;37,52905835;15,19999981;
23:08:18:097;0,0518;0,1587;-0,2025;56,39490884;37,52905835;15,19999981;
23:08:18:099;-0,0094;0,2516;-0,2434;56,39490884;37,52905835;15,19999981;
23:08:18:156;-0,0094;0,2516;-0,2434;56,39490884;37,52905835;15,19999981;
23:08:18:159;-0,0094;0,2516;-0,2434;56,39490884;37,52905835;15,19999981;
23:08:18:161;0,1360;0,2974;-0,3696;56,39490884;37,52905835;15,19999981;
23:08:18:217;0,1360;0,2974;-0,3696;56,39490884;37,52905835;15,19999981;
23:08:18:219;0,1360;0,2974;-0,3696;56,39490884;37,52905835;15,19999981;
23:08:18:221;-0,0175;0,2976;-0,4489;56,39490884;37,52905835;15,19999981;
23:08:18:297;-0,0175;0,2976;-0,4489;56,39490884;37,52905835;15,19999981;
23:08:18:300;-0,0175;0,2976;-0,4489;56,39490884;37,52905835;15,19999981;
23:08:18:302;0,0424;0,2538;-0,2003;56,39490884;37,52905835;15,19999981;
23:08:18:358;0,0424;0,2538;-0,2003;56,39490884;37,52905835;15,19999981;
23:08:18:360;0,0424;0,2538;-0,2003;56,39490884;37,52905835;15,19999981;
23:08:18:362;0,1505;0,3068;-0,0544;56,39490884;37,52905835;15,19999981;
23:08:18:417;0,1505;0,3068;-0,0544;56,39490884;37,52905835;15,19999981;
23:08:18:420;0,1505;0,3068;-0,0544;56,39490884;37,52905835;15,19999981;
23:08:18:422;-0,0708;0,2136;-0,1733;56,39490884;37,52905835;15,19999981;
23:08:18:478;-0,0708;0,2136;-0,1733;56,39490884;37,52905835;15,19999981;
23:08:18:481;0,0936;0,2014;0,3244;56,39490884;37,52905835;15,19999981;
23:08:18:483;0,0936;0,2014;0,3244;56,39490884;37,52905835;15,19999981;
23:08:18:507;0,0936;0,2014;0,3244;56,39490884;37,52905835;15,19999981;
23:08:18:509;0,0932;0,1918;0,3178;56,39490884;37,52905835;15,19999981;
23:08:18:558;0,0932;0,1918;0,3178;56,39490884;37,52905835;15,19999981;
23:08:18:560;0,0932;0,1918;0,3178;56,39490884;37,52905835;15,19999981;
23:08:18:564;0,0802;0,1441;0,3558;56,39490884;37,52905835;15,19999981;
23:08:18:618;0,0802;0,1441;0,3558;56,39490884;37,52905835;15,19999981;
23:08:18:621;0,0802;0,1441;0,3558;56,39490884;37,52905835;15,19999981;
23:08:18:623;0,1206;0,1658;0,6165;56,39490884;37,52905835;15,19999981;
23:08:18:697;0,1206;0,1658;0,6165;56,39490884;37,52905835;15,19999981;
23:08:18:698;0,1206;0,1658;0,6165;56,39503194;37,52912199;14,93999958;
23:08:18:700;0,2419;0,1425;0,2351;56,39503194;37,52912199;14,93999958;
23:08:18:738;0,2419;0,1425;0,2351;56,39503194;37,52912199;14,93999958;
23:08:18:740;0,2419;0,1425;0,2351;56,39503194;37,52912199;14,93999958;
23:08:18:741;0,1019;0,2353;0,0080;56,39503194;37,52912199;14,93999958;
23:08:18:768;0,1019;0,2353;0,0080;56,39503194;37,52912199;14,93999958;
23:08:18:820;0,1019;0,2353;0,0080;56,39503194;37,52912199;14,93999958;
23:08:18:823;0,1019;0,2353;0,0080;56,39503194;37,52912199;14,93999958;
23:08:18:825;-0,0063;0,3742;-0,4605;56,39503194;37,52912199;14,93999958;
23:08:18:880;-0,0063;0,3742;-0,4605;56,39503194;37,52912199;14,93999958;
23:08:18:882;-0,0063;0,3742;-0,4605;56,39503194;37,52912199;14,93999958;
23:08:18:884;-0,0755;0,2498;-0,0957;56,39503194;37,52912199;14,93999958;
23:08:18:941;-0,0755;0,2498;-0,0957;56,39503194;37,52912199;14,93999958;
23:08:18:943;-0,0755;0,2498;-0,0957;56,39503194;37,52912199;14,93999958;
23:08:18:945;0,0905;0,2666;0,0276;56,39503194;37,52912199;14,93999958;
23:08:19:001;0,0905;0,2666;0,0276;56,39503194;37,52912199;14,93999958;
23:08:19:003;0,0905;0,2666;0,0276;56,39503194;37,52912199;14,93999958;
23:08:19:005;0,0361;0,2399;0,1985;56,39503194;37,52912199;14,93999958;
23:08:19:091;0,0361;0,2399;0,1985;56,39503194;37,52912199;14,93999958;
23:08:19:094;0,0361;0,2399;0,1985;56,39503194;37,52912199;14,93999958;
23:08:19:096;0,1780;0,2373;-0,0804;56,39503194;37,52912199;14,93999958;
23:08:19:151;0,1780;0,2373;-0,0804;56,39503194;37,52912199;14,93999958;
23:08:19:153;0,1780;0,2373;-0,0804;56,39503194;37,52912199;14,93999958;
23:08:19:156;0,0956;0,2106;0,3452;56,39503194;37,52912199;14,93999958;
23:08:19:211;0,0956;0,2106;0,3452;56,39503194;37,52912199;14,93999958;
23:08:19:214;0,0956;0,2106;0,3452;56,39503194;37,52912199;14,93999958;
23:08:19:217;0,2235;0,2319;0,0893;56,39503194;37,52912199;14,93999958;
23:08:19:278;0,1844;0,1944;0,3240;56,39503194;37,52912199;14,93999958;
23:08:19:287;0,1844;0,1944;0,3240;56,39503194;37,52912199;14,93999958;
23:08:19:288;0,1844;0,1944;0,3240;56,39503194;37,52912199;14,93999958;
23:08:19:293;0,1844;0,1944;0,3240;56,39503194;37,52912199;14,93999958;
23:08:19:295;0,1702;0,1967;0,3199;56,39503194;37,52912199;14,93999958;
23:08:19:352;0,1702;0,1967;0,3199;56,39503194;37,52912199;14,93999958;
23:08:19:355;0,1702;0,1967;0,3199;56,39503194;37,52912199;14,93999958;
23:08:19:357;0,2473;0,2757;0,0713;56,39503194;37,52912199;14,93999958;
23:08:19:413;0,2473;0,2757;0,0713;56,39503194;37,52912199;14,93999958;
23:08:19:419;0,2473;0,2757;0,0713;56,39503194;37,52912199;14,93999958;
23:08:19:422;0,2568;0,2365;-0,0487;56,39503194;37,52912199;14,93999958;
23:08:19:473;0,2568;0,2365;-0,0487;56,39503194;37,52912199;14,93999958;
23:08:19:475;0,2568;0,2365;-0,0487;56,39503194;37,52912199;14,93999958;
23:08:19:477;0,2443;0,1678;0,1298;56,39503194;37,52912199;14,93999958;
23:08:19:533;0,2443;0,1678;0,1298;56,39503194;37,52912199;14,93999958;
23:08:19:536;0,2443;0,1678;0,1298;56,39503194;37,52912199;14,93999958;
23:08:19:538;0,1644;0,2261;0,0366;56,39503194;37,52912199;14,93999958;
23:08:19:553;0,1644;0,2261;0,0366;56,39503194;37,52912199;14,93999958;
23:08:19:614;0,1644;0,2261;0,0366;56,39503194;37,52912199;14,93999958;
23:08:19:617;0,1644;0,2261;0,0366;56,39503194;37,52912199;14,93999958;
23:08:19:619;0,2627;0,2148;-0,0494;56,39503194;37,52912199;14,93999958;
23:08:19:673;0,2627;0,2148;-0,0494;56,39503194;37,52912199;14,93999958;
23:08:19:675;0,2627;0,2148;-0,0494;56,39514983;37,52919770;15,01000023;
23:08:19:677;0,0890;0,1797;-0,0674;56,39514983;37,52919770;15,01000023;
23:08:19:734;0,0890;0,1797;-0,0674;56,39514983;37,52919770;15,01000023;
23:08:19:737;0,0890;0,1797;-0,0674;56,39514983;37,52919770;15,01000023;
23:08:19:738;0,0946;0,1015;0,0178;56,39514983;37,52919770;15,01000023;
23:08:19:795;0,0946;0,1015;0,0178;56,39514983;37,52919770;15,01000023;
23:08:19:798;0,0946;0,1015;0,0178;56,39514983;37,52919770;15,01000023;
23:08:19:800;0,1297;0,0991;0,5028;56,39514983;37,52919770;15,01000023;
23:08:19:875;0,1297;0,0991;0,5028;56,39514983;37,52919770;15,01000023;
23:08:19:878;0,1297;0,0991;0,5028;56,39514983;37,52919770;15,01000023;
23:08:19:880;0,1103;0,0968;0,1206;56,39514983;37,52919770;15,01000023;
23:08:19:935;0,1103;0,0968;0,1206;56,39514983;37,52919770;15,01000023;
23:08:19:938;0,1103;0,0968;0,1206;56,39514983;37,52919770;15,01000023;
23:08:19:940;0,0658;0,0757;0,2692;56,39514983;37,52919770;15,01000023;
23:08:19:996;0,0658;0,0757;0,2692;56,39514983;37,52919770;15,01000023;
23:08:19:999;0,0658;0,0757;0,2692;56,39514983;37,52919770;15,01000023;
23:08:20:000;0,0262;0,0993;0,1501;56,39514983;37,52919770;15,01000023;
23:08:20:056;0,0262;0,0993;0,1501;56,39514983;37,52919770;15,01000023;
23:08:20:059;0,0262;0,0993;0,1501;56,39514983;37,52919770;15,01000023;
23:08:20:061;-0,0460;0,1335;-0,0375;56,39514983;37,52919770;15,01000023;
23:08:20:076;-0,0644;0,1288;-0,0367;56,39514983;37,52919770;15,01000023;
23:08:20:080;-0,0644;0,1288;-0,0367;56,39514983;37,52919770;15,01000023;
23:08:20:137;-0,0644;0,1288;-0,0367;56,39514983;37,52919770;15,01000023;
23:08:20:140;-0,0644;0,1288;-0,0367;56,39514983;37,52919770;15,01000023;
23:08:20:141;-0,0389;0,1425;-0,1852;56,39514983;37,52919770;15,01000023;
23:08:20:197;-0,0389;0,1425;-0,1852;56,39514983;37,52919770;15,01000023;
23:08:20:200;-0,0424;0,1678;-0,0374;56,39514983;37,52919770;15,01000023;
23:08:20:202;-0,0424;0,1678;-0,0374;56,39514983;37,52919770;15,01000023;
23:08:20:257;-0,0424;0,1678;-0,0374;56,39514983;37,52919770;15,01000023;
23:08:20:260;-0,0424;0,1678;-0,0374;56,39514983;37,52919770;15,01000023;
23:08:20:261;-0,0981;0,1543;-0,2738;56,39514983;37,52919770;15,01000023;
23:08:20:317;-0,0981;0,1543;-0,2738;56,39514983;37,52919770;15,01000023;
23:08:20:319;-0,0981;0,1543;-0,2738;56,39514983;37,52919770;15,01000023;
23:08:20:321;0,0418;0,1496;-0,0635;56,39514983;37,52919770;15,01000023;
23:08:20:345;0,0418;0,1496;-0,0635;56,39514983;37,52919770;15,01000023;
23:08:20:397;0,0418;0,1496;-0,0635;56,39514983;37,52919770;15,01000023;
23:08:20:400;0,0418;0,1496;-0,0635;56,39514983;37,52919770;15,01000023;
23:08:20:402;0,0605;0,0885;0,0638;56,39514983;37,52919770;15,01000023;
23:08:20:458;0,0605;0,0885;0,0638;56,39514983;37,52919770;15,01000023;
23:08:20:461;0,0605;0,0885;0,0638;56,39514983;37,52919770;15,01000023;
23:08:20:462;0,0761;0,1001;0,1096;56,39514983;37,52919770;15,01000023;
23:08:20:519;0,0761;0,1001;0,1096;56,39514983;37,52919770;15,01000023;
23:08:20:521;0,0761;0,1001;0,1096;56,39514983;37,52919770;15,01000023;
23:08:20:523;0,0247;0,0733;-0,1065;56,39514983;37,52919770;15,01000023;
23:08:20:578;0,0247;0,0733;-0,1065;56,39514983;37,52919770;15,01000023;
23:08:20:581;0,0247;0,0733;-0,1065;56,39514983;37,52919770;15,01000023;
23:08:20:582;0,0564;0,0093;0,3080;56,39514983;37,52919770;15,01000023;
23:08:20:658;0,0564;0,0093;0,3080;56,39514983;37,52919770;15,01000023;
23:08:20:661;0,0564;0,0093;0,3080;56,39514983;37,52919770;15,01000023;
23:08:20:662;0,0207;0,0463;0,1104;56,39514983;37,52919770;15,01000023;
23:08:20:720;0,0207;0,0463;0,1104;56,39514983;37,52919770;15,01000023;
23:08:20:722;0,0207;0,0463;0,1104;56,39528051;37,52925384;15,10000038;
23:08:20:724;0,1128;0,0245;0,3188;56,39528051;37,52925384;15,10000038;
23:08:20:780;0,1128;0,0245;0,3188;56,39528051;37,52925384;15,10000038;
23:08:20:782;0,1128;0,0245;0,3188;56,39528051;37,52925384;15,10000038;
23:08:20:784;0,0323;0,0684;0,1721;56,39528051;37,52925384;15,10000038;
23:08:20:840;0,0323;0,0684;0,1721;56,39528051;37,52925384;15,10000038;
23:08:20:842;0,0323;0,0684;0,1721;56,39528051;37,52925384;15,10000038;
23:08:20:845;0,0145;0,0643;-0,2160;56,39528051;37,52925384;15,10000038;
23:08:20:864;0,0145;0,0643;-0,2160;56,39528051;37,52925384;15,10000038;
23:08:20:867;0,0163;0,0636;-0,2124;56,39528051;37,52925384;15,10000038;
23:08:20:921;0,0163;0,0636;-0,2124;56,39528051;37,52925384;15,10000038;
23:08:20:923;0,0163;0,0636;-0,2124;56,39528051;37,52925384;15,10000038;
23:08:20:925;0,0514;0,1313;-0,0747;56,39528051;37,52925384;15,10000038;
23:08:20:981;0,0514;0,1313;-0,0747;56,39528051;37,52925384;15,10000038;
23:08:20:984;0,0514;0,1313;-0,0747;56,39528051;37,52925384;15,10000038;
23:08:20:986;-0,0218;0,0516;0,1565;56,39528051;37,52925384;15,10000038;
23:08:21:041;-0,0218;0,0516;0,1565;56,39528051;37,52925384;15,10000038;
23:08:21:044;-0,0218;0,0516;0,1565;56,39528051;37,52925384;15,10000038;
23:08:21:046;-0,0414;0,1077;-0,1095;56,39528051;37,52925384;15,10000038;
23:08:21:101;-0,0414;0,1077;-0,1095;56,39528051;37,52925384;15,10000038;
23:08:21:104;-0,0414;0,1077;-0,1095;56,39528051;37,52925384;15,10000038;
23:08:21:107;-0,0499;0,0598;0,0292;56,39528051;37,52925384;15,10000038;
23:08:21:131;-0,0499;0,0598;0,0292;56,39528051;37,52925384;15,10000038;
23:08:21:182;-0,0499;0,0598;0,0292;56,39528051;37,52925384;15,10000038;
23:08:21:184;-0,0499;0,0598;0,0292;56,39528051;37,52925384;15,10000038;
23:08:21:187;-0,0597;0,0555;0,1452;56,39528051;37,52925384;15,10000038;
23:08:21:242;-0,0597;0,0555;0,1452;56,39528051;37,52925384;15,10000038;
23:08:21:245;-0,0597;0,0555;0,1452;56,39528051;37,52925384;15,10000038;
23:08:21:247;-0,0520;0,0213;0,0186;56,39528051;37,52925384;15,10000038;
23:08:21:303;-0,0520;0,0213;0,0186;56,39528051;37,52925384;15,10000038;
23:08:21:305;-0,0520;0,0213;0,0186;56,39528051;37,52925384;15,10000038;
23:08:21:307;-0,0519;-0,0563;0,1349;56,39528051;37,52925384;15,10000038;
23:08:21:362;-0,0519;-0,0563;0,1349;56,39528051;37,52925384;15,10000038;
23:08:21:365;-0,0519;-0,0563;0,1349;56,39528051;37,52925384;15,10000038;
23:08:21:367;-0,0399;0,0328;0,1441;56,39528051;37,52925384;15,10000038;
23:08:21:443;-0,0399;0,0328;0,1441;56,39528051;37,52925384;15,10000038;
23:08:21:446;-0,0399;0,0328;0,1441;56,39528051;37,52925384;15,10000038;
23:08:21:447;-0,1743;0,0091;-0,1814;56,39528051;37,52925384;15,10000038;
23:08:21:504;-0,1743;0,0091;-0,1814;56,39528051;37,52925384;15,10000038;
23:08:21:506;-0,1743;0,0091;-0,1814;56,39528051;37,52925384;15,10000038;
23:08:21:509;-0,0395;-0,0019;-0,0204;56,39528051;37,52925384;15,10000038;
23:08:21:564;-0,0395;-0,0019;-0,0204;56,39528051;37,52925384;15,10000038;
23:08:21:567;-0,0395;-0,0019;-0,0204;56,39528051;37,52925384;15,10000038;
23:08:21:569;-0,0908;0,0347;-0,1656;56,39528051;37,52925384;15,10000038;
23:08:21:624;-0,0908;0,0347;-0,1656;56,39528051;37,52925384;15,10000038;
23:08:21:626;-0,0908;0,0347;-0,1656;56,39528051;37,52925384;15,10000038;
23:08:21:628;-0,1984;0,0030;-0,0617;56,39528051;37,52925384;15,10000038;
23:08:21:645;-0,1984;0,0030;-0,0617;56,39528051;37,52925384;15,10000038;
23:08:21:648;-0,1920;0,0062;-0,0603;56,39528051;37,52925384;15,10000038;
23:08:21:703;-0,1920;0,0062;-0,0603;56,39528051;37,52925384;15,10000038;
23:08:21:706;-0,1920;0,0062;-0,0603;56,39541543;37,52930595;15,22999954;
23:08:21:708;-0,0426;0,0141;-0,1657;56,39541543;37,52930595;15,22999954;
23:08:21:764;-0,0426;0,0141;-0,1657;56,39541543;37,52930595;15,22999954;
23:08:21:766;-0,0426;0,0141;-0,1657;56,39541543;37,52930595;15,22999954;
23:08:21:767;-0,0747;0,0788;-0,2339;56,39541543;37,52930595;15,22999954;
23:08:21:824;-0,0747;0,0788;-0,2339;56,39541543;37,52930595;15,22999954;
23:08:21:828;-0,0747;0,0788;-0,2339;56,39541543;37,52930595;15,22999954;
23:08:21:829;-0,0560;0,0496;-0,0930;56,39541543;37,52930595;15,22999954;
23:08:21:886;-0,0560;0,0496;-0,0930;56,39541543;37,52930595;15,22999954;
23:08:21:889;-0,0560;0,0496;-0,0930;56,39541543;37,52930595;15,22999954;
23:08:21:891;-0,1084;-0,0007;-0,0353;56,39541543;37,52930595;15,22999954;
23:08:21:914;-0,1084;-0,0007;-0,0353;56,39541543;37,52930595;15,22999954;
23:08:21:966;-0,1084;-0,0007;-0,0353;56,39541543;37,52930595;15,22999954;
23:08:21:969;-0,1084;-0,0007;-0,0353;56,39541543;37,52930595;15,22999954;
23:08:21:971;0,0451;-0,0762;0,2994;56,39541543;37,52930595;15,22999954;
23:08:22:026;0,0451;-0,0762;0,2994;56,39541543;37,52930595;15,22999954;
23:08:22:029;0,0451;-0,0762;0,2994;56,39541543;37,52930595;15,22999954;
23:08:22:030;-0,0538;-0,0771;0,1323;56,39541543;37,52930595;15,22999954;
23:08:22:086;-0,0538;-0,0771;0,1323;56,39541543;37,52930595;15,22999954;
23:08:22:089;-0,0664;-0,0514;0,0239;56,39541543;37,52930595;15,22999954;
23:08:22:091;-0,0664;-0,0514;0,0239;56,39541543;37,52930595;15,22999954;
23:08:22:147;-0,0664;-0,0514;0,0239;56,39541543;37,52930595;15,22999954;
23:08:22:150;-0,0664;-0,0514;0,0239;56,39541543;37,52930595;15,22999954;
23:08:22:152;-0,0105;-0,0551;0,1611;56,39541543;37,52930595;15,22999954;
23:08:22:228;-0,0105;-0,0551;0,1611;56,39541543;37,52930595;15,22999954;
23:08:22:230;-0,0105;-0,0551;0,1611;56,39541543;37,52930595;15,22999954;
23:08:22:232;-0,0297;-0,0880;-0,0590;56,39541543;37,52930595;15,22999954;
23:08:22:288;-0,0297;-0,0880;-0,0590;56,39541543;37,52930595;15,22999954;
23:08:22:290;-0,0297;-0,0880;-0,0590;56,39541543;37,52930595;15,22999954;
23:08:22:292;-0,0402;-0,0007;-0,0838;56,39541543;37,52930595;15,22999954;
23:08:22:347;-0,0402;-0,0007;-0,0838;56,39541543;37,52930595;15,22999954;
23:08:22:350;-0,0560;-0,0822;0,2443;56,39541543;37,52930595;15,22999954;
23:08:22:352;-0,0560;-0,0822;0,2443;56,39541543;37,52930595;15,22999954;
23:08:22:408;-0,0560;-0,0822;0,2443;56,39541543;37,52930595;15,22999954;
23:08:22:412;-0,0560;-0,0822;0,2443;56,39541543;37,52930595;15,22999954;
23:08:22:413;0,0779;-0,0453;0,0976;56,39541543;37,52930595;15,22999954;
23:08:22:431;0,0779;-0,0453;0,0976;56,39541543;37,52930595;15,22999954;
23:08:22:433;0,0794;-0,0515;0,0949;56,39541543;37,52930595;15,22999954;
23:08:22:488;0,0794;-0,0515;0,0949;56,39541543;37,52930595;15,22999954;
23:08:22:491;0,0794;-0,0515;0,0949;56,39541543;37,52930595;15,22999954;
23:08:22:492;-0,0600;-0,0892;0,0847;56,39541543;37,52930595;15,22999954;
23:08:22:548;-0,0600;-0,0892;0,0847;56,39541543;37,52930595;15,22999954;
23:08:22:551;-0,0600;-0,0892;0,0847;56,39541543;37,52930595;15,22999954;
23:08:22:554;-0,0004;-0,0755;0,2118;56,39541543;37,52930595;15,22999954;
23:08:22:612;-0,0004;-0,0755;0,2118;56,39541543;37,52930595;15,22999954;
23:08:22:614;-0,0004;-0,0755;0,2118;56,39541543;37,52930595;15,22999954;
23:08:22:615;0,0882;-0,1092;0,2869;56,39541543;37,52930595;15,22999954;
23:08:22:668;0,0882;-0,1092;0,2869;56,39541543;37,52930595;15,22999954;
23:08:22:673;0,0882;-0,1092;0,2869;56,39555453;37,52936398;15,21000004;
23:08:22:675;0,0009;-0,0775;0,1341;56,39555453;37,52936398;15,21000004;
23:08:22:696;0,0009;-0,0775;0,1341;56,39555453;37,52936398;15,21000004;
23:08:22:748;0,0009;-0,0775;0,1341;56,39555453;37,52936398;15,21000004;
23:08:22:750;0,0009;-0,0775;0,1341;56,39555453;37,52936398;15,21000004;
23:08:22:751;0,0251;-0,0877;-0,0896;56,39555453;37,52936398;15,21000004;
23:08:22:809;0,0251;-0,0877;-0,0896;56,39555453;37,52936398;15,21000004;
23:08:22:812;0,0251;-0,0877;-0,0896;56,39555453;37,52936398;15,21000004;
23:08:22:813;-0,0460;-0,0029;-0,0073;56,39555453;37,52936398;15,21000004;
23:08:22:870;-0,0460;-0,0029;-0,0073;56,39555453;37,52936398;15,21000004;
23:08:22:873;-0,0460;-0,0029;-0,0073;56,39555453;37,52936398;15,21000004;
23:08:22:874;-0,0691;-0,0389;-0,0021;56,39555453;37,52936398;15,21000004;
23:08:22:931;-0,0691;-0,0389;-0,0021;56,39555453;37,52936398;15,21000004;
23:08:22:933;-0,0691;-0,0389;-0,0021;56,39555453;37,52936398;15,21000004;
23:08:22:935;0,0345;-0,0496;0,0875;56,39555453;37,52936398;15,21000004;
23:08:23:013;-0,0429;-0,0186;-0,0977;56,39555453;37,52936398;15,21000004;
23:08:23:016;-0,0429;-0,0186;-0,0977;56,39555453;37,52936398;15,21000004;
23:08:23:020;-0,0429;-0,0186;-0,0977;56,39555453;37,52936398;15,21000004;
23:08:23:071;-0,0429;-0,0186;-0,0977;56,39555453;37,52936398;15,21000004;
23:08:23:074;-0,0429;-0,0186;-0,0977;56,39555453;37,52936398;15,21000004;
23:08:23:075;-0,0231;-0,0434;0,0197;56,39555453;37,52936398;15,21000004;
23:08:23:131;-0,0231;-0,0434;0,0197;56,39555453;37,52936398;15,21000004;
23:08:23:134;-0,0231;-0,0434;0,0197;56,39555453;37,52936398;15,21000004;
23:08:23:136;0,0350;-0,0267;-0,0388;56,39555453;37,52936398;15,21000004;
23:08:23:192;0,0350;-0,0267;-0,0388;56,39555453;37,52936398;15,21000004;
23:08:23:194;0,0350;-0,0267;-0,0388;56,39555453;37,52936398;15,21000004;
23:08:23:196;-0,0482;0,0556;-0,1466;56,39555453;37,52936398;15,21000004;
23:08:23:213;-0,0482;0,0556;-0,1466;56,39555453;37,52936398;15,21000004;
23:08:23:216;-0,0455;0,0581;-0,1289;56,39555453;37,52936398;15,21000004;
23:08:23:272;-0,0455;0,0581;-0,1289;56,39555453;37,52936398;15,21000004;
23:08:23:275;-0,0455;0,0581;-0,1289;56,39555453;37,52936398;15,21000004;
23:08:23:277;-0,0442;-0,0424;-0,0446;56,39555453;37,52936398;15,21000004;
23:08:23:332;-0,0442;-0,0424;-0,0446;56,39555453;37,52936398;15,21000004;
23:08:23:334;-0,0442;-0,0424;-0,0446;56,39555453;37,52936398;15,21000004;
23:08:23:335;0,0100;-0,0713;0,1859;56,39555453;37,52936398;15,21000004;
23:08:23:393;0,0100;-0,0713;0,1859;56,39555453;37,52936398;15,21000004;
23:08:23:396;0,0100;-0,0713;0,1859;56,39555453;37,52936398;15,21000004;
23:08:23:397;0,1236;0,0263;-0,0936;56,39555453;37,52936398;15,21000004;
23:08:23:453;0,1236;0,0263;-0,0936;56,39555453;37,52936398;15,21000004;
23:08:23:455;0,1236;0,0263;-0,0936;56,39555453;37,52936398;15,21000004;
23:08:23:457;0,0411;-0,0608;0,1366;56,39555453;37,52936398;15,21000004;
23:08:23:475;0,0411;-0,0608;0,1366;56,39555453;37,52936398;15,21000004;
23:08:23:534;0,0411;-0,0608;0,1366;56,39555453;37,52936398;15,21000004;
23:08:23:536;0,0411;-0,0608;0,1366;56,39555453;37,52936398;15,21000004;
23:08:23:538;0,1068;0,0139;-0,3032;56,39555453;37,52936398;15,21000004;
23:08:23:594;0,1068;0,0139;-0,3032;56,39555453;37,52936398;15,21000004;
23:08:23:596;0,1068;0,0139;-0,3032;56,39555453;37,52936398;15,21000004;
23:08:23:598;0,0918;-0,0094;-0,0737;56,39555453;37,52936398;15,21000004;
23:08:23:662;0,0918;-0,0094;-0,0737;56,39555453;37,52936398;15,21000004;
23:08:23:663;0,0918;-0,0094;-0,0737;56,39568060;37,52941666;15,15999985;
23:08:23:665;0,0475;0,0039;-0,0807;56,39568060;37,52941666;15,15999985;
23:08:23:713;0,0475;0,0039;-0,0807;56,39568060;37,52941666;15,15999985;
23:08:23:716;0,0475;0,0039;-0,0807;56,39568060;37,52941666;15,15999985;
23:08:23:717;0,0320;0,0478;-0,2524;56,39568060;37,52941666;15,15999985;
23:08:23:795;0,0320;0,0478;-0,2524;56,39568060;37,52941666;15,15999985;
23:08:23:797;0,0320;0,0478;-0,2524;56,39568060;37,52941666;15,15999985;
23:08:23:799;0,0641;0,0238;-0,1385;56,39568060;37,52941666;15,15999985;
23:08:23:855;0,0641;0,0238;-0,1385;56,39568060;37,52941666;15,15999985;
23:08:23:857;0,0641;0,0238;-0,1385;56,39568060;37,52941666;15,15999985;
23:08:23:859;0,1138;0,0138;0,0009;56,39568060;37,52941666;15,15999985;
23:08:23:918;0,1138;0,0138;0,0009;56,39568060;37,52941666;15,15999985;
23:08:23:920;0,1138;0,0138;0,0009;56,39568060;37,52941666;15,15999985;
23:08:23:922;0,0525;0,0205;-0,0187;56,39568060;37,52941666;15,15999985;
23:08:23:975;0,0525;0,0205;-0,0187;56,39568060;37,52941666;15,15999985;
23:08:23:977;0,0525;0,0205;-0,0187;56,39568060;37,52941666;15,15999985;
23:08:23:979;0,0739;-0,0073;0,0627;56,39568060;37,52941666;15,15999985;
23:08:23:999;0,0739;-0,0073;0,0627;56,39568060;37,52941666;15,15999985;
23:08:24:001;0,0691;-0,0079;0,0554;56,39568060;37,52941666;15,15999985;
23:08:24:055;0,0691;-0,0079;0,0554;56,39568060;37,52941666;15,15999985;
23:08:24:057;0,0691;-0,0079;0,0554;56,39568060;37,52941666;15,15999985;
23:08:24:058;0,1144;0,0344;0,0208;56,39568060;37,52941666;15,15999985;
23:08:24:116;0,1144;0,0344;0,0208;56,39568060;37,52941666;15,15999985;
23:08:24:119;0,1144;0,0344;0,0208;56,39568060;37,52941666;15,15999985;
23:08:24:120;-0,0279;0,0440;-0,1364;56,39568060;37,52941666;15,15999985;
23:08:24:178;-0,0279;0,0440;-0,1364;56,39568060;37,52941666;15,15999985;
23:08:24:180;-0,0279;0,0440;-0,1364;56,39568060;37,52941666;15,15999985;
23:08:24:182;0,1034;-0,0278;0,2469;56,39568060;37,52941666;15,15999985;
23:08:24:236;0,1034;-0,0278;0,2469;56,39568060;37,52941666;15,15999985;
23:08:24:239;0,1034;-0,0278;0,2469;56,39568060;37,52941666;15,15999985;
23:08:24:240;0,0859;-0,0485;0,2935;56,39568060;37,52941666;15,15999985;
23:08:24:259;0,0859;-0,0485;0,2935;56,39568060;37,52941666;15,15999985;
23:08:24:318;0,0859;-0,0485;0,2935;56,39568060;37,52941666;15,15999985;
23:08:24:320;0,0859;-0,0485;0,2935;56,39568060;37,52941666;15,15999985;
23:08:24:322;0,0256;0,0073;-0,0328;56,39568060;37,52941666;15,15999985;
23:08:24:378;0,0256;0,0073;-0,0328;56,39568060;37,52941666;15,15999985;
23:08:24:381;0,0256;0,0073;-0,0328;56,39568060;37,52941666;15,15999985;
23:08:24:382;0,0048;0,0309;-0,0095;56,39568060;37,52941666;15,15999985;
23:08:24:439;0,0048;0,0309;-0,0095;56,39568060;37,52941666;15,15999985;
23:08:24:442;0,0048;0,0309;-0,0095;56,39568060;37,52941666;15,15999985;
23:08:24:443;0,0579;-0,0476;0,3686;56,39568060;37,52941666;15,15999985;
23:08:24:499;0,0579;-0,0476;0,3686;56,39568060;37,52941666;15,15999985;
23:08:24:502;0,0579;-0,0476;0,3686;56,39568060;37,52941666;15,15999985;
23:08:24:503;0,0298;0,0190;-0,0450;56,39568060;37,52941666;15,15999985;
23:08:24:579;0,0298;0,0190;-0,0450;56,39568060;37,52941666;15,15999985;
23:08:24:581;0,0298;0,0190;-0,0450;56,39568060;37,52941666;15,15999985;
23:08:24:584;0,0186;-0,0277;0,0863;56,39568060;37,52941666;15,15999985;
23:08:24:641;0,0186;-0,0277;0,0863;56,39568060;37,52941666;15,15999985;
23:08:24:644;0,0186;-0,0277;0,0863;56,39568060;37,52941666;15,15999985;
23:08:24:647;0,0109;-0,0322;0,1604;56,39568060;37,52941666;15,15999985;
23:08:24:708;0,0109;-0,0322;0,1604;56,39568060;37,52941666;15,15999985;
23:08:24:710;0,0109;-0,0322;0,1604;56,39582143;37,52947108;15,07999992;
23:08:24:713;0,1316;-0,0299;0,1751;56,39582143;37,52947108;15,07999992;
23:08:24:759;0,1316;-0,0299;0,1751;56,39582143;37,52947108;15,07999992;
23:08:24:762;0,1316;-0,0299;0,1751;56,39582143;37,52947108;15,07999992;
23:08:24:763;0,0266;-0,0041;-0,0952;56,39582143;37,52947108;15,07999992;
23:08:24:783;0,0266;-0,0041;-0,0952;56,39582143;37,52947108;15,07999992;
23:08:24:785;0,0269;-0,0043;-0,0849;56,39582143;37,52947108;15,07999992;
23:08:24:842;0,0269;-0,0043;-0,0849;56,39582143;37,52947108;15,07999992;
23:08:24:845;0,0269;-0,0043;-0,0849;56,39582143;37,52947108;15,07999992;
23:08:24:847;0,0419;0,0209;0,0417;56,39582143;37,52947108;15,07999992;
23:08:24:902;0,0419;0,0209;0,0417;56,39582143;37,52947108;15,07999992;
23:08:24:906;0,0419;0,0209;0,0417;56,39582143;37,52947108;15,07999992;
23:08:24:907;0,0710;-0,0655;0,2120;56,39582143;37,52947108;15,07999992;
23:08:24:962;0,0710;-0,0655;0,2120;56,39582143;37,52947108;15,07999992;
23:08:24:965;0,0710;-0,0655;0,2120;56,39582143;37,52947108;15,07999992;
23:08:24:967;0,1317;-0,0436;0,3788;56,39582143;37,52947108;15,07999992;
23:08:25:022;0,1317;-0,0436;0,3788;56,39582143;37,52947108;15,07999992;
23:08:25:025;0,1317;-0,0436;0,3788;56,39582143;37,52947108;15,07999992;
23:08:25:029;-0,0103;0,0111;0,0104;56,39582143;37,52947108;15,07999992;
23:08:25:051;-0,0103;0,0111;0,0104;56,39582143;37,52947108;15,07999992;
23:08:25:103;-0,0103;0,0111;0,0104;56,39582143;37,52947108;15,07999992;
23:08:25:106;-0,0103;0,0111;0,0104;56,39582143;37,52947108;15,07999992;
23:08:25:108;-0,0357;-0,0188;0,2926;56,39582143;37,52947108;15,07999992;
23:08:25:162;-0,0357;-0,0188;0,2926;56,39582143;37,52947108;15,07999992;
23:08:25:165;-0,0357;-0,0188;0,2926;56,39582143;37,52947108;15,07999992;
23:08:25:167;-0,0733;0,0345;0,1140;56,39582143;37,52947108;15,07999992;
23:08:25:223;-0,0733;0,0345;0,1140;56,39582143;37,52947108;15,07999992;
23:08:25:226;-0,0733;0,0345;0,1140;56,39582143;37,52947108;15,07999992;
23:08:25:228;-0,0250;0,0107;-0,0580;56,39582143;37,52947108;15,07999992;
23:08:25:284;-0,0250;0,0107;-0,0580;56,39582143;37,52947108;15,07999992;
23:08:25:287;-0,0250;0,0107;-0,0580;56,39582143;37,52947108;15,07999992;
23:08:25:289;0,0646;0,0091;0,0501;56,39582143;37,52947108;15,07999992;
23:08:25:364;0,0646;0,0091;0,0501;56,39582143;37,52947108;15,07999992;
23:08:25:368;0,0646;0,0091;0,0501;56,39582143;37,52947108;15,07999992;
23:08:25:370;-0,0056;0,0294;0,0253;56,39582143;37,52947108;15,07999992;
23:08:25:425;-0,0056;0,0294;0,0253;56,39582143;37,52947108;15,07999992;
23:08:25:428;-0,0056;0,0294;0,0253;56,39582143;37,52947108;15,07999992;
23:08:25:430;-0,0309;0,0318;-0,1939;56,39582143;37,52947108;15,07999992;
23:08:25:485;-0,0309;0,0318;-0,1939;56,39582143;37,52947108;15,07999992;
23:08:25:488;-0,0309;0,0318;-0,1939;56,39582143;37,52947108;15,07999992;
23:08:25:490;0,0088;0,0369;-0,1356;56,39582143;37,52947108;15,07999992;
23:08:25:545;0,0088;0,0369;-0,1356;56,39582143;37,52947108;15,07999992;
23:08:25:549;0,0088;0,0369;-0,1356;56,39582143;37,52947108;15,07999992;
23:08:25:551;0,0223;0,0080;-0,0090;56,39582143;37,52947108;15,07999992;
23:08:25:569;0,0223;0,0080;-0,0090;56,39582143;37,52947108;15,07999992;
23:08:25:573;0,0169;0,0138;-0,0069;56,39582143;37,52947108;15,07999992;
23:08:25:626;0,0169;0,0138;-0,0069;56,39582143;37,52947108;15,07999992;
23:08:25:630;0,0169;0,0138;-0,0069;56,39582143;37,52947108;15,07999992;
23:08:25:633;-0,0079;0,0191;0,1404;56,39582143;37,52947108;15,07999992;
23:08:25:685;-0,0079;0,0191;0,1404;56,39582143;37,52947108;15,07999992;
23:08:25:689;-0,0079;0,0191;0,1404;56,39595755;37,52952427;15,02999973;
23:08:25:691;0,0463;-0,0388;0,1042;56,39595755;37,52952427;15,02999973;
23:08:25:746;0,0463;-0,0388;0,1042;56,39595755;37,52952427;15,02999973;
23:08:25:748;0,0463;-0,0388;0,1042;56,39595755;37,52952427;15,02999973;
23:08:25:751;0,0323;-0,0701;0,3181;56,39595755;37,52952427;15,02999973;
23:08:25:807;0,0323;-0,0701;0,3181;56,39595755;37,52952427;15,02999973;
23:08:25:810;0,0323;-0,0701;0,3181;56,39595755;37,52952427;15,02999973;
23:08:25:812;-0,0104;-0,0367;0,2348;56,39595755;37,52952427;15,02999973;
23:08:25:836;-0,0104;-0,0367;0,2348;56,39595755;37,52952427;15,02999973;
23:08:25:887;-0,0104;-0,0367;0,2348;56,39595755;37,52952427;15,02999973;
23:08:25:890;-0,0104;-0,0367;0,2348;56,39595755;37,52952427;15,02999973;
23:08:25:892;0,0213;0,0370;-0,1892;56,39595755;37,52952427;15,02999973;
23:08:25:947;0,0213;0,0370;-0,1892;56,39595755;37,52952427;15,02999973;
23:08:25:950;0,0213;0,0370;-0,1892;56,39595755;37,52952427;15,02999973;
23:08:25:952;-0,0355;0,0393;0,0449;56,39595755;37,52952427;15,02999973;
23:08:26:008;-0,0355;0,0393;0,0449;56,39595755;37,52952427;15,02999973;
23:08:26:010;-0,0355;0,0393;0,0449;56,39595755;37,52952427;15,02999973;
23:08:26:013;-0,0074;0,0004;-0,1477;56,39595755;37,52952427;15,02999973;
23:08:26:068;-0,0074;0,0004;-0,1477;56,39595755;37,52952427;15,02999973;
23:08:26:071;-0,0074;0,0004;-0,1477;56,39595755;37,52952427;15,02999973;
23:08:26:073;0,0424;0,0476;-0,2562;56,39595755;37,52952427;15,02999973;
23:08:26:149;0,0424;0,0476;-0,2562;56,39595755;37,52952427;15,02999973;
23:08:26:152;0,0424;0,0476;-0,2562;56,39595755;37,52952427;15,02999973;
23:08:26:168;0,0019;0,0351;-0,0254;56,39595755;37,52952427;15,02999973;
23:08:26:210;0,0019;0,0351;-0,0254;56,39595755;37,52952427;15,02999973;
23:08:26:213;0,0019;0,0351;-0,0254;56,39595755;37,52952427;15,02999973;
23:08:26:214;-0,0011;-0,0321;-0,0285;56,39595755;37,52952427;15,02999973;
23:08:26:269;-0,0011;-0,0321;-0,0285;56,39595755;37,52952427;15,02999973;
23:08:26:272;-0,0011;-0,0321;-0,0285;56,39595755;37,52952427;15,02999973;
23:08:26:274;-0,0351;0,0582;0,0445;56,39595755;37,52952427;15,02999973;
23:08:26:330;-0,0351;0,0582;0,0445;56,39595755;37,52952427;15,02999973;
23:08:26:333;-0,0351;0,0582;0,0445;56,39595755;37,52952427;15,02999973;
23:08:26:335;-0,0657;0,0319;-0,2738;56,39595755;37,52952427;15,02999973;
23:08:26:356;-0,0561;0,0361;-0,2689;56,39595755;37,52952427;15,02999973;
23:08:26:360;-0,0561;0,0361;-0,2689;56,39595755;37,52952427;15,02999973;
23:08:26:409;-0,0561;0,0361;-0,2689;56,39595755;37,52952427;15,02999973;
23:08:26:413;-0,0561;0,0361;-0,2689;56,39595755;37,52952427;15,02999973;
23:08:26:414;-0,0993;-0,0505;0,0709;56,39595755;37,52952427;15,02999973;
23:08:26:470;-0,0993;-0,0505;0,0709;56,39595755;37,52952427;15,02999973;
23:08:26:473;-0,0993;-0,0505;0,0709;56,39595755;37,52952427;15,02999973;
23:08:26:475;-0,1265;0,1474;-0,1220;56,39595755;37,52952427;15,02999973;
23:08:26:530;-0,1265;0,1474;-0,1220;56,39595755;37,52952427;15,02999973;
23:08:26:533;-0,1265;0,1474;-0,1220;56,39595755;37,52952427;15,02999973;
23:08:26:535;-0,1166;0,0900;-0,3779;56,39595755;37,52952427;15,02999973;
23:08:26:590;-0,1166;0,0900;-0,3779;56,39595755;37,52952427;15,02999973;
23:08:26:593;-0,1166;0,0900;-0,3779;56,39595755;37,52952427;15,02999973;
23:08:26:595;-0,1928;0,0398;-0,0068;56,39595755;37,52952427;15,02999973;
23:08:26:616;-0,1928;0,0398;-0,0068;56,39595755;37,52952427;15,02999973;
23:08:26:674;-0,1928;0,0398;-0,0068;56,39595755;37,52952427;15,02999973;
23:08:26:677;-0,1928;0,0398;-0,0068;56,39608824;37,52958321;15,02000046;
23:08:26:681;-0,0463;-0,0063;0,2351;56,39608824;37,52958321;15,02000046;
23:08:26:730;-0,0463;-0,0063;0,2351;56,39608824;37,52958321;15,02000046;
23:08:26:732;-0,0463;-0,0063;0,2351;56,39608824;37,52958321;15,02000046;
23:08:26:734;-0,0819;0,0046;0,1328;56,39608824;37,52958321;15,02000046;
23:08:26:790;-0,0819;0,0046;0,1328;56,39608824;37,52958321;15,02000046;
23:08:26:793;-0,0819;0,0046;0,1328;56,39608824;37,52958321;15,02000046;
23:08:26:795;-0,1299;0,1145;-0,1200;56,39608824;37,52958321;15,02000046;
23:08:26:851;-0,1299;0,1145;-0,1200;56,39608824;37,52958321;15,02000046;
23:08:26:854;-0,1299;0,1145;-0,1200;56,39608824;37,52958321;15,02000046;
23:08:26:856;-0,1034;0,1450;-0,5148;56,39608824;37,52958321;15,02000046;
23:08:26:932;-0,1034;0,1450;-0,5148;56,39608824;37,52958321;15,02000046;
23:08:26:936;-0,1034;0,1450;-0,5148;56,39608824;37,52958321;15,02000046;
23:08:26:938;-0,1484;0,1172;-0,2769;56,39608824;37,52958321;15,02000046;
23:08:26:993;-0,1484;0,1172;-0,2769;56,39608824;37,52958321;15,02000046;
23:08:26:996;-0,1484;0,1172;-0,2769;56,39608824;37,52958321;15,02000046;
23:08:26:998;-0,0970;0,0586;-0,0000;56,39608824;37,52958321;15,02000046;
23:08:27:052;-0,0970;0,0586;-0,0000;56,39608824;37,52958321;15,02000046;
23:08:27:055;-0,0970;0,0586;-0,0000;56,39608824;37,52958321;15,02000046;
23:08:27:056;-0,0832;0,0822;0,1247;56,39608824;37,52958321;15,02000046;
23:08:27:113;-0,0832;0,0822;0,1247;56,39608824;37,52958321;15,02000046;
23:08:27:116;-0,0832;0,0822;0,1247;56,39608824;37,52958321;15,02000046;
23:08:27:118;-0,2138;0,0328;0,1531;56,39608824;37,52958321;15,02000046;
23:08:27:138;-0,2171;0,0197;0,1488;56,39608824;37,52958321;15,02000046;
23:08:27:141;-0,2171;0,0197;0,1488;56,39608824;37,52958321;15,02000046;
23:08:27:194;-0,2171;0,0197;0,1488;56,39608824;37,52958321;15,02000046;
23:08:27:197;-0,0113;0,0252;0,0636;56,39608824;37,52958321;15,02000046;
23:08:27:199;-0,0113;0,0252;0,0636;56,39608824;37,52958321;15,02000046;
23:08:27:253;-0,0113;0,0252;0,0636;56,39608824;37,52958321;15,02000046;
23:08:27:255;-0,0113;0,0252;0,0636;56,39608824;37,52958321;15,02000046;
23:08:27:258;-0,0343;0,0569;0,1809;56,39608824;37,52958321;15,02000046;
23:08:27:314;-0,0343;0,0569;0,1809;56,39608824;37,52958321;15,02000046;
23:08:27:317;-0,0343;0,0569;0,1809;56,39608824;37,52958321;15,02000046;
23:08:27:319;-0,0900;0,1490;-0,1058;56,39608824;37,52958321;15,02000046;
23:08:27:374;-0,0900;0,1490;-0,1058;56,39608824;37,52958321;15,02000046;
23:08:27:377;-0,0900;0,1490;-0,1058;56,39608824;37,52958321;15,02000046;
23:08:27:379;-0,0430;0,0195;0,0223;56,39608824;37,52958321;15,02000046;
23:08:27:401;-0,0430;0,0195;0,0223;56,39608824;37,52958321;15,02000046;
23:08:27:454;-0,0430;0,0195;0,0223;56,39608824;37,52958321;15,02000046;
23:08:27:458;-0,0430;0,0195;0,0223;56,39608824;37,52958321;15,02000046;
23:08:27:461;-0,0244;0,0707;0,1060;56,39608824;37,52958321;15,02000046;
23:08:27:515;-0,0244;0,0707;0,1060;56,39608824;37,52958321;15,02000046;
23:08:27:519;-0,0244;0,0707;0,1060;56,39608824;37,52958321;15,02000046;
23:08:27:520;0,0457;0,0217;0,1005;56,39608824;37,52958321;15,02000046;
23:08:27:574;0,0457;0,0217;0,1005;56,39608824;37,52958321;15,02000046;
23:08:27:577;0,0457;0,0217;0,1005;56,39608824;37,52958321;15,02000046;
23:08:27:579;0,0195;0,0279;0,1422;56,39608824;37,52958321;15,02000046;
23:08:27:637;0,0195;0,0279;0,1422;56,39608824;37,52958321;15,02000046;
23:08:27:640;0,0195;0,0279;0,1422;56,39608824;37,52958321;15,02000046;
23:08:27:642;-0,0380;0,0154;0,1309;56,39608824;37,52958321;15,02000046;
23:08:27:717;-0,0380;0,0154;0,1309;56,39608824;37,52958321;15,02000046;
23:08:27:719;-0,0380;0,0154;0,1309;56,39621344;37,52965048;15,02999973;
23:08:27:721;-0,0371;-0,0751;0,4869;56,39621344;37,52965048;15,02999973;
23:08:27:776;-0,0371;-0,0751;0,4869;56,39621344;37,52965048;15,02999973;
23:08:27:779;-0,0371;-0,0751;0,4869;56,39621344;37,52965048;15,02999973;
23:08:27:782;-0,0626;-0,0352;0,2645;56,39621344;37,52965048;15,02999973;
23:08:27:837;-0,0626;-0,0352;0,2645;56,39621344;37,52965048;15,02999973;
23:08:27:841;-0,0626;-0,0352;0,2645;56,39621344;37,52965048;15,02999973;
23:08:27:843;-0,0333;0,0363;0,0773;56,39621344;37,52965048;15,02999973;
23:08:27:898;-0,0333;0,0363;0,0773;56,39621344;37,52965048;15,02999973;
23:08:27:900;-0,0333;0,0363;0,0773;56,39621344;37,52965048;15,02999973;
23:08:27:903;-0,0649;-0,0176;-0,0099;56,39621344;37,52965048;15,02999973;
23:08:27:923;-0,0649;-0,0176;-0,0099;56,39621344;37,52965048;15,02999973;
23:08:27:926;-0,0623;-0,0141;-0,0093;56,39621344;37,52965048;15,02999973;
23:08:27:978;-0,0623;-0,0141;-0,0093;56,39621344;37,52965048;15,02999973;
23:08:27:981;-0,0623;-0,0141;-0,0093;56,39621344;37,52965048;15,02999973;
23:08:27:983;-0,0997;0,1326;-0,3377;56,39621344;37,52965048;15,02999973;
23:08:28:038;-0,0997;0,1326;-0,3377;56,39621344;37,52965048;15,02999973;
23:08:28:041;-0,0997;0,1326;-0,3377;56,39621344;37,52965048;15,02999973;
23:08:28:042;-0,0615;0,1145;-0,2428;56,39621344;37,52965048;15,02999973;
23:08:28:099;-0,0615;0,1145;-0,2428;56,39621344;37,52965048;15,02999973;
23:08:28:101;-0,0615;0,1145;-0,2428;56,39621344;37,52965048;15,02999973;
23:08:28:102;-0,0791;0,1127;-0,4065;56,39621344;37,52965048;15,02999973;
23:08:28:158;-0,0791;0,1127;-0,4065;56,39621344;37,52965048;15,02999973;
23:08:28:160;-0,0791;0,1127;-0,4065;56,39621344;37,52965048;15,02999973;
23:08:28:161;-0,0965;0,1095;-0,1585;56,39621344;37,52965048;15,02999973;
23:08:28:184;-0,0965;0,1095;-0,1585;56,39621344;37,52965048;15,02999973;
23:08:28:237;-0,0965;0,1095;-0,1585;56,39621344;37,52965048;15,02999973;
23:08:28:239;-0,0965;0,1095;-0,1585;56,39621344;37,52965048;15,02999973;
23:08:28:240;-0,0025;0,1380;-0,3021;56,39621344;37,52965048;15,02999973;
23:08:28:298;-0,0025;0,1380;-0,3021;56,39621344;37,52965048;15,02999973;
23:08:28:299;-0,0025;0,1380;-0,3021;56,39621344;37,52965048;15,02999973;
23:08:28:300;-0,1427;0,0918;-0,2376;56,39621344;37,52965048;15,02999973;
23:08:28:358;-0,1427;0,0918;-0,2376;56,39621344;37,52965048;15,02999973;
23:08:28:360;-0,1427;0,0918;-0,2376;56,39621344;37,52965048;15,02999973;
23:08:28:361;-0,0122;-0,1024;0,3175;56,39621344;37,52965048;15,02999973;
23:08:28:420;-0,0122;-0,1024;0,3175;56,39621344;37,52965048;15,02999973;
23:08:28:423;-0,0122;-0,1024;0,3175;56,39621344;37,52965048;15,02999973;
23:08:28:425;-0,0368;0,0006;0,3514;56,39621344;37,52965048;15,02999973;
23:08:28:501;-0,0368;0,0006;0,3514;56,39621344;37,52965048;15,02999973;
23:08:28:505;-0,0368;0,0006;0,3514;56,39621344;37,52965048;15,02999973;
23:08:28:508;0,0328;0,0034;0,1856;56,39621344;37,52965048;15,02999973;
23:08:28:560;0,0328;0,0034;0,1856;56,39621344;37,52965048;15,02999973;
23:08:28:564;0,0328;0,0034;0,1856;56,39621344;37,52965048;15,02999973;
23:08:28:567;-0,0312;-0,0429;0,1819;56,39621344;37,52965048;15,02999973;
23:08:28:621;-0,0312;-0,0429;0,1819;56,39621344;37,52965048;15,02999973;
23:08:28:624;-0,0312;-0,0429;0,1819;56,39621344;37,52965048;15,02999973;
23:08:28:626;0,0528;0,0598;0,0412;56,39621344;37,52965048;15,02999973;
23:08:28:681;0,0528;0,0598;0,0412;56,39621344;37,52965048;15,02999973;
23:08:28:683;0,0528;0,0598;0,0412;56,39634623;37,52971375;15,10999966;
23:08:28:689;-0,0213;0,0083;0,0454;56,39634623;37,52971375;15,10999966;
23:08:28:708;-0,0213;0,0083;0,0454;56,39634623;37,52971375;15,10999966;
23:08:28:710;-0,0264;0,0142;0,0417;56,39634623;37,52971375;15,10999966;
23:08:28:761;-0,0264;0,0142;0,0417;56,39634623;37,52971375;15,10999966;
23:08:28:763;-0,0264;0,0142;0,0417;56,39634623;37,52971375;15,10999966;
23:08:28:766;-0,0807;0,0124;-0,0181;56,39634623;37,52971375;15,10999966;
23:08:28:822;-0,0807;0,0124;-0,0181;56,39634623;37,52971375;15,10999966;
23:08:28:825;-0,0807;0,0124;-0,0181;56,39634623;37,52971375;15,10999966;
23:08:28:827;-0,0734;-0,0027;0,0380;56,39634623;37,52971375;15,10999966;
23:08:28:883;-0,0734;-0,0027;0,0380;56,39634623;37,52971375;15,10999966;
23:08:28:886;-0,0734;-0,0027;0,0380;56,39634623;37,52971375;15,10999966;
23:08:28:888;0,0802;0,0842;-0,1970;56,39634623;37,52971375;15,10999966;
23:08:28:944;0,0802;0,0842;-0,1970;56,39634623;37,52971375;15,10999966;
23:08:28:947;0,0802;0,0842;-0,1970;56,39634623;37,52971375;15,10999966;
23:08:28:949;0,0498;0,0718;-0,1871;56,39634623;37,52971375;15,10999966;
23:08:28:972;0,0498;0,0718;-0,1871;56,39634623;37,52971375;15,10999966;
23:08:29:023;0,0498;0,0718;-0,1871;56,39634623;37,52971375;15,10999966;
23:08:29:027;0,0498;0,0718;-0,1871;56,39634623;37,52971375;15,10999966;
23:08:29:029;0,1122;-0,0122;0,3514;56,39634623;37,52971375;15,10999966;
23:08:29:084;0,1122;-0,0122;0,3514;56,39634623;37,52971375;15,10999966;
23:08:29:087;0,1122;-0,0122;0,3514;56,39634623;37,52971375;15,10999966;
23:08:29:089;0,0049;-0,0591;0,2264;56,39634623;37,52971375;15,10999966;
23:08:29:144;0,0049;-0,0591;0,2264;56,39634623;37,52971375;15,10999966;
23:08:29:148;0,0049;-0,0591;0,2264;56,39634623;37,52971375;15,10999966;
23:08:29:150;0,1513;-0,1167;0,7119;56,39634623;37,52971375;15,10999966;
23:08:29:204;0,1513;-0,1167;0,7119;56,39634623;37,52971375;15,10999966;
23:08:29:207;0,1513;-0,1167;0,7119;56,39634623;37,52971375;15,10999966;
23:08:29:209;-0,0691;-0,0912;0,6840;56,39634623;37,52971375;15,10999966;
23:08:29:284;-0,0691;-0,0912;0,6840;56,39634623;37,52971375;15,10999966;
23:08:29:288;-0,0691;-0,0912;0,6840;56,39634623;37,52971375;15,10999966;
23:08:29:290;-0,1580;-0,0965;0,1681;56,39634623;37,52971375;15,10999966;
23:08:29:344;-0,1580;-0,0965;0,1681;56,39634623;37,52971375;15,10999966;
23:08:29:347;-0,1580;-0,0965;0,1681;56,39634623;37,52971375;15,10999966;
23:08:29:349;-0,1350;0,1175;-0,5822;56,39634623;37,52971375;15,10999966;
23:08:29:404;-0,1350;0,1175;-0,5822;56,39634623;37,52971375;15,10999966;
23:08:29:408;-0,1350;0,1175;-0,5822;56,39634623;37,52971375;15,10999966;
23:08:29:410;-0,2550;0,1025;-0,4457;56,39634623;37,52971375;15,10999966;
23:08:29:466;-0,2550;0,1025;-0,4457;56,39634623;37,52971375;15,10999966;
23:08:29:469;-0,2550;0,1025;-0,4457;56,39634623;37,52971375;15,10999966;
23:08:29:471;-0,1044;-0,0214;0,1266;56,39634623;37,52971375;15,10999966;
23:08:29:493;-0,1044;-0,0214;0,1266;56,39634623;37,52971375;15,10999966;
23:08:29:496;-0,1321;0,0115;0,1306;56,39634623;37,52971375;15,10999966;
23:08:29:544;-0,1321;0,0115;0,1306;56,39634623;37,52971375;15,10999966;
23:08:29:547;-0,1321;0,0115;0,1306;56,39634623;37,52971375;15,10999966;
23:08:29:548;-0,0713;-0,0717;0,0556;56,39634623;37,52971375;15,10999966;
23:08:29:606;-0,0713;-0,0717;0,0556;56,39634623;37,52971375;15,10999966;
23:08:29:609;-0,0713;-0,0717;0,0556;56,39634623;37,52971375;15,10999966;
23:08:29:611;0,0392;-0,0853;0,6083;56,39634623;37,52971375;15,10999966;
23:08:29:666;0,0392;-0,0853;0,6083;56,39634623;37,52971375;15,10999966;
23:08:29:671;0,0392;-0,0853;0,6083;56,39634623;37,52971375;15,10999966;
23:08:29:673;0,0834;-0,0535;-0,2340;56,39634623;37,52971375;15,10999966;
23:08:29:725;0,0834;-0,0535;-0,2340;56,39634623;37,52971375;15,10999966;
23:08:29:728;0,0834;-0,0535;-0,2340;56,39647596;37,52976653;15,11999989;
23:08:29:729;-0,0087;-0,0254;-0,1275;56,39647596;37,52976653;15,11999989;
23:08:29:754;-0,0087;-0,0254;-0,1275;56,39647596;37,52976653;15,11999989;
23:08:29:808;-0,0087;-0,0254;-0,1275;56,39647596;37,52976653;15,11999989;
23:08:29:811;-0,0087;-0,0254;-0,1275;56,39647596;37,52976653;15,11999989;
23:08:29:813;0,0094;-0,0158;0,2397;56,39647596;37,52976653;15,11999989;
23:08:29:867;0,0094;-0,0158;0,2397;56,39647596;37,52976653;15,11999989;
23:08:29:870;0,0094;-0,0158;0,2397;56,39647596;37,52976653;15,11999989;
23:08:29:872;0,0216;-0,0411;0,0423;56,39647596;37,52976653;15,11999989;
23:08:29:928;0,0216;-0,0411;0,0423;56,39647596;37,52976653;15,11999989;
23:08:29:931;0,0216;-0,0411;0,0423;56,39647596;37,52976653;15,11999989;
23:08:29:933;0,0130;0,0592;-0,4737;56,39647596;37,52976653;15,11999989;
23:08:29:989;0,0130;0,0592;-0,4737;56,39647596;37,52976653;15,11999989;
23:08:29:992;0,0130;0,0592;-0,4737;56,39647596;37,52976653;15,11999989;
23:08:29:994;-0,0880;0,1192;-0,7241;56,39647596;37,52976653;15,11999989;
23:08:30:068;-0,0880;0,1192;-0,7241;56,39647596;37,52976653;15,11999989;
23:08:30:071;-0,0880;0,1192;-0,7241;56,39647596;37,52976653;15,11999989;
23:08:30:073;-0,0023;0,0328;-0,0294;56,39647596;37,52976653;15,11999989;
23:08:30:129;0,0314;0,0491;-0,1139;56,39647596;37,52976653;15,11999989;
23:08:30:133;0,0314;0,0491;-0,1139;56,39647596;37,52976653;15,11999989;
23:08:30:135;0,0314;0,0491;-0,1139;56,39647596;37,52976653;15,11999989;
23:08:30:190;0,0314;0,0491;-0,1139;56,39647596;37,52976653;15,11999989;
23:08:30:193;0,0314;0,0491;-0,1139;56,39647596;37,52976653;15,11999989;
23:08:30:195;-0,0218;0,0182;-0,1646;56,39647596;37,52976653;15,11999989;
23:08:30:250;-0,0218;0,0182;-0,1646;56,39647596;37,52976653;15,11999989;
23:08:30:254;-0,0218;0,0182;-0,1646;56,39647596;37,52976653;15,11999989;
23:08:30:256;0,1422;0,0125;0,3336;56,39647596;37,52976653;15,11999989;
23:08:30:279;0,1422;0,0125;0,3336;56,39647596;37,52976653;15,11999989;
23:08:30:283;0,1373;0,0059;0,3271;56,39647596;37,52976653;15,11999989;
23:08:30:330;0,1373;0,0059;0,3271;56,39647596;37,52976653;15,11999989;
23:08:30:332;0,1373;0,0059;0,3271;56,39647596;37,52976653;15,11999989;
23:08:30:334;-0,0071;-0,0292;0,1015;56,39647596;37,52976653;15,11999989;
23:08:30:390;-0,0071;-0,0292;0,1015;56,39647596;37,52976653;15,11999989;
23:08:30:393;-0,0071;-0,0292;0,1015;56,39647596;37,52976653;15,11999989;
23:08:30:395;0,0344;0,0317;0,1557;56,39647596;37,52976653;15,11999989;
23:08:30:451;0,0344;0,0317;0,1557;56,39647596;37,52976653;15,11999989;
23:08:30:453;0,0344;0,0317;0,1557;56,39647596;37,52976653;15,11999989;
23:08:30:457;-0,1041;-0,0252;0,0362;56,39647596;37,52976653;15,11999989;
23:08:30:511;-0,1041;-0,0252;0,0362;56,39647596;37,52976653;15,11999989;
23:08:30:514;-0,1041;-0,0252;0,0362;56,39647596;37,52976653;15,11999989;
23:08:30:516;-0,0005;0,0012;0,1527;56,39647596;37,52976653;15,11999989;
23:08:30:540;-0,0005;0,0012;0,1527;56,39647596;37,52976653;15,11999989;
23:08:30:592;-0,0005;0,0012;0,1527;56,39647596;37,52976653;15,11999989;
23:08:30:595;-0,0005;0,0012;0,1527;56,39647596;37,52976653;15,11999989;
23:08:30:597;0,1540;0,0310;-0,0059;56,39647596;37,52976653;15,11999989;
23:08:30:651;0,1540;0,0310;-0,0059;56,39647596;37,52976653;15,11999989;
23:08:30:654;0,1540;0,0310;-0,0059;56,39647596;37,52976653;15,11999989;
23:08:30:657;-0,0044;-0,0931;0,3704;56,39647596;37,52976653;15,11999989;
23:08:30:710;-0,0044;-0,0931;0,3704;56,39647596;37,52976653;15,11999989;
23:08:30:712;-0,0044;-0,0931;0,3704;56,39660940;37,52983256;15,11999989;
23:08:30:714;0,0536;-0,0228;0,1770;56,39660940;37,52983256;15,11999989;
23:08:30:771;0,0536;-0,0228;0,1770;56,39660940;37,52983256;15,11999989;
23:08:30:773;0,0536;-0,0228;0,1770;56,39660940;37,52983256;15,11999989;
23:08:30:776;0,1716;0,0032;-0,0993;56,39660940;37,52983256;15,11999989;
23:08:30:800;0,1716;0,0032;-0,0993;56,39660940;37,52983256;15,11999989;
23:08:30:802;0,1740;-0,0033;-0,0989;56,39660940;37,52983256;15,11999989;
23:08:30:862;0,1740;-0,0033;-0,0989;56,39660940;37,52983256;15,11999989;
23:08:30:866;0,1740;-0,0033;-0,0989;56,39660940;37,52983256;15,11999989;
23:08:30:867;0,0893;0,0887;-0,2961;56,39660940;37,52983256;15,11999989;
23:08:30:923;0,0893;0,0887;-0,2961;56,39660940;37,52983256;15,11999989;
23:08:30:925;0,0893;0,0887;-0,2961;56,39660940;37,52983256;15,11999989;
23:08:30:929;0,0231;0,0905;-0,2831;56,39660940;37,52983256;15,11999989;
23:08:30:983;0,0231;0,0905;-0,2831;56,39660940;37,52983256;15,11999989;
23:08:30:986;0,0231;0,0905;-0,2831;56,39660940;37,52983256;15,11999989;
23:08:30:988;-0,0285;0,0769;-0,3236;56,39660940;37,52983256;15,11999989;
23:08:31:043;-0,0285;0,0769;-0,3236;56,39660940;37,52983256;15,11999989;
23:08:31:046;-0,0285;0,0769;-0,3236;56,39660940;37,52983256;15,11999989;
23:08:31:048;0,0341;0,1527;-0,3088;56,39660940;37,52983256;15,11999989;
23:08:31:063;0,0341;0,1527;-0,3088;56,39660940;37,52983256;15,11999989;
23:08:31:124;0,0341;0,1527;-0,3088;56,39660940;37,52983256;15,11999989;
23:08:31:127;0,0341;0,1527;-0,3088;56,39660940;37,52983256;15,11999989;
23:08:31:128;0,0158;0,1009;-0,0293;56,39660940;37,52983256;15,11999989;
23:08:31:185;0,0158;0,1009;-0,0293;56,39660940;37,52983256;15,11999989;
23:08:31:189;0,0158;0,1009;-0,0293;56,39660940;37,52983256;15,11999989;
23:08:31:191;0,0232;0,0614;-0,1138;56,39660940;37,52983256;15,11999989;
23:08:31:245;0,0232;0,0614;-0,1138;56,39660940;37,52983256;15,11999989;
23:08:31:248;0,0232;0,0614;-0,1138;56,39660940;37,52983256;15,11999989;
23:08:31:251;-0,0889;0,0872;-0,1512;56,39660940;37,52983256;15,11999989;
23:08:31:305;-0,0889;0,0872;-0,1512;56,39660940;37,52983256;15,11999989;
23:08:31:309;-0,0889;0,0872;-0,1512;56,39660940;37,52983256;15,11999989;
23:08:31:310;-0,1169;0,1366;-0,1719;56,39660940;37,52983256;15,11999989;
23:08:31:385;-0,1169;0,1366;-0,1719;56,39660940;37,52983256;15,11999989;
23:08:31:388;-0,1169;0,1366;-0,1719;56,39660940;37,52983256;15,11999989;
23:08:31:390;-0,0490;0,0248;0,1788;56,39660940;37,52983256;15,11999989;
23:08:31:446;-0,0490;0,0248;0,1788;56,39660940;37,52983256;15,11999989;
23:08:31:449;-0,0490;0,0248;0,1788;56,39660940;37,52983256;15,11999989;
23:08:31:450;0,0674;0,0419;0,2786;56,39660940;37,52983256;15,11999989;
23:08:31:506;0,0674;0,0419;0,2786;56,39660940;37,52983256;15,11999989;
23:08:31:509;0,0674;0,0419;0,2786;56,39660940;37,52983256;15,11999989;
23:08:31:511;-0,0094;-0,0080;0,2592;56,39660940;37,52983256;15,11999989;
23:08:31:566;0,1714;0,0264;0,3715;56,39660940;37,52983256;15,11999989;
23:08:31:569;0,1714;0,0264;0,3715;56,39660940;37,52983256;15,11999989;
23:08:31:571;0,1714;0,0264;0,3715;56,39660940;37,52983256;15,11999989;
23:08:31:586;0,1834;0,0191;0,3636;56,39660940;37,52983256;15,11999989;
23:08:31:590;0,1834;0,0191;0,3636;56,39660940;37,52983256;15,11999989;
23:08:31:647;0,0806;0,0520;0,0556;56,39660940;37,52983256;15,11999989;
23:08:31:651;0,0806;0,0520;0,0556;56,39660940;37,52983256;15,11999989;
23:08:31:653;0,0806;0,0520;0,0556;56,39660940;37,52983256;15,11999989;
23:08:31:707;0,0806;0,0520;0,0556;56,39660940;37,52983256;15,11999989;
23:08:31:711;0,0806;0,0520;0,0556;56,39674082;37,52988543;15,21000004;
23:08:31:713;0,1127;0,1425;-0,2162;56,39674082;37,52988543;15,21000004;
23:08:31:766;0,1127;0,1425;-0,2162;56,39674082;37,52988543;15,21000004;
23:08:31:769;0,1127;0,1425;-0,2162;56,39674082;37,52988543;15,21000004;
23:08:31:771;-0,0409;-0,0061;0,0685;56,39674082;37,52988543;15,21000004;
23:08:31:829;-0,0409;-0,0061;0,0685;56,39674082;37,52988543;15,21000004;
23:08:31:833;-0,0409;-0,0061;0,0685;56,39674082;37,52988543;15,21000004;
23:08:31:835;-0,0785;-0,0067;0,6143;56,39674082;37,52988543;15,21000004;
23:08:31:849;-0,0785;-0,0067;0,6143;56,39674082;37,52988543;15,21000004;
23:08:31:908;-0,0785;-0,0067;0,6143;56,39674082;37,52988543;15,21000004;
23:08:31:912;-0,0641;-0,0045;0,3730;56,39674082;37,52988543;15,21000004;
23:08:31:914;-0,0641;-0,0045;0,3730;56,39674082;37,52988543;15,21000004;
23:08:31:968;-0,0641;-0,0045;0,3730;56,39674082;37,52988543;15,21000004;
23:08:31:972;-0,0641;-0,0045;0,3730;56,39674082;37,52988543;15,21000004;
23:08:31:974;-0,0144;0,1075;-0,0981;56,39674082;37,52988543;15,21000004;
23:08:32:029;-0,0144;0,1075;-0,0981;56,39674082;37,52988543;15,21000004;
23:08:32:031;-0,0612;0,0338;-0,0388;56,39674082;37,52988543;15,21000004;
23:08:32:034;-0,0612;0,0338;-0,0388;56,39674082;37,52988543;15,21000004;
23:08:32:089;-0,0612;0,0338;-0,0388;56,39674082;37,52988543;15,21000004;
23:08:32:092;-0,0612;0,0338;-0,0388;56,39674082;37,52988543;15,21000004;
23:08:32:094;0,0105;0,0526;0,0232;56,39674082;37,52988543;15,21000004;
23:08:32:170;0,0105;0,0526;0,0232;56,39674082;37,52988543;15,21000004;
23:08:32:173;0,0105;0,0526;0,0232;56,39674082;37,52988543;15,21000004;
23:08:32:175;0,0750;-0,0667;0,3353;56,39674082;37,52988543;15,21000004;
23:08:32:229;0,0750;-0,0667;0,3353;56,39674082;37,52988543;15,21000004;
23:08:32:231;0,0750;-0,0667;0,3353;56,39674082;37,52988543;15,21000004;
23:08:32:233;0,1832;-0,0671;0,4469;56,39674082;37,52988543;15,21000004;
23:08:32:290;0,1832;-0,0671;0,4469;56,39674082;37,52988543;15,21000004;
23:08:32:293;0,1832;-0,0671;0,4469;56,39674082;37,52988543;15,21000004;
23:08:32:296;0,0273;0,0353;-0,2598;56,39674082;37,52988543;15,21000004;
23:08:32:351;0,0273;0,0353;-0,2598;56,39674082;37,52988543;15,21000004;
23:08:32:354;0,0273;0,0353;-0,2598;56,39674082;37,52988543;15,21000004;
23:08:32:356;-0,0553;-0,0585;-0,2199;56,39674082;37,52988543;15,21000004;
23:08:32:371;-0,0403;-0,0520;-0,2158;56,39674082;37,52988543;15,21000004;
23:08:32:376;-0,0403;-0,0520;-0,2158;56,39674082;37,52988543;15,21000004;
23:08:32:430;-0,0403;-0,0520;-0,2158;56,39674082;37,52988543;15,21000004;
23:08:32:433;-0,0403;-0,0520;-0,2158;56,39674082;37,52988543;15,21000004;
23:08:32:435;-0,0065;-0,1333;0,2372;56,39674082;37,52988543;15,21000004;
23:08:32:491;-0,0065;-0,1333;0,2372;56,39674082;37,52988543;15,21000004;
23:08:32:494;-0,0065;-0,1333;0,2372;56,39674082;37,52988543;15,21000004;
23:08:32:496;-0,0224;-0,1267;0,3066;56,39674082;37,52988543;15,21000004;
23:08:32:551;-0,0224;-0,1267;0,3066;56,39674082;37,52988543;15,21000004;
23:08:32:554;-0,0224;-0,1267;0,3066;56,39674082;37,52988543;15,21000004;
23:08:32:556;-0,0568;-0,1744;-0,0434;56,39674082;37,52988543;15,21000004;
23:08:32:612;-0,0568;-0,1744;-0,0434;56,39674082;37,52988543;15,21000004;
23:08:32:614;-0,0568;-0,1744;-0,0434;56,39674082;37,52988543;15,21000004;
23:08:32:616;-0,1986;-0,1692;0,0202;56,39674082;37,52988543;15,21000004;
23:08:32:681;-0,1986;-0,1692;0,0202;56,39674082;37,52988543;15,21000004;
23:08:32:683;-0,1986;-0,1692;0,0202;56,39686962;37,52994355;15,22999954;
23:08:32:687;-0,0816;-0,3551;0,4834;56,39686962;37,52994355;15,22999954;
23:08:32:742;-0,0816;-0,3551;0,4834;56,39686962;37,52994355;15,22999954;
23:08:32:745;-0,0816;-0,3551;0,4834;56,39686962;37,52994355;15,22999954;
23:08:32:747;-0,1116;-0,2057;-0,0448;56,39686962;37,52994355;15,22999954;
23:08:32:802;-0,1116;-0,2057;-0,0448;56,39686962;37,52994355;15,22999954;
23:08:32:806;-0,1116;-0,2057;-0,0448;56,39686962;37,52994355;15,22999954;
23:08:32:808;-0,0839;-0,2068;0,0886;56,39686962;37,52994355;15,22999954;
23:08:32:863;-0,0839;-0,2068;0,0886;56,39686962;37,52994355;15,22999954;
23:08:32:866;-0,0839;-0,2068;0,0886;56,39686962;37,52994355;15,22999954;
23:08:32:868;0,1215;-0,2638;0,6491;56,39686962;37,52994355;15,22999954;
23:08:32:891;0,1215;-0,2638;0,6491;56,39686962;37,52994355;15,22999954;
23:08:32:943;0,1215;-0,2638;0,6491;56,39686962;37,52994355;15,22999954;
23:08:32:946;0,1215;-0,2638;0,6491;56,39686962;37,52994355;15,22999954;
23:08:32:950;0,1363;-0,2351;-0,1744;56,39686962;37,52994355;15,22999954;
23:08:33:004;0,1363;-0,2351;-0,1744;56,39686962;37,52994355;15,22999954;
23:08:33:007;0,1363;-0,2351;-0,1744;56,39686962;37,52994355;15,22999954;
23:08:33:009;0,1306;-0,1196;-0,4435;56,39686962;37,52994355;15,22999954;
23:08:33:063;0,1306;-0,1196;-0,4435;56,39686962;37,52994355;15,22999954;
23:08:33:067;0,1306;-0,1196;-0,4435;56,39686962;37,52994355;15,22999954;
23:08:33:068;0,1473;-0,1733;-0,1955;56,39686962;37,52994355;15,22999954;
23:08:33:124;0,1473;-0,1733;-0,1955;56,39686962;37,52994355;15,22999954;
23:08:33:127;0,1473;-0,1733;-0,1955;56,39686962;37,52994355;15,22999954;
23:08:33:129;0,0650;-0,2205;0,0683;56,39686962;37,52994355;15,22999954;
23:08:33:205;0,0650;-0,2205;0,0683;56,39686962;37,52994355;15,22999954;
23:08:33:208;0,0650;-0,2205;0,0683;56,39686962;37,52994355;15,22999954;
23:08:33:210;0,0522;-0,2373;-0,0182;56,39686962;37,52994355;15,22999954;
23:08:33:265;0,0522;-0,2373;-0,0182;56,39686962;37,52994355;15,22999954;
23:08:33:268;0,0522;-0,2373;-0,0182;56,39686962;37,52994355;15,22999954;
23:08:33:271;0,1655;-0,2253;0,1489;56,39686962;37,52994355;15,22999954;
23:08:33:326;0,1655;-0,2253;0,1489;56,39686962;37,52994355;15,22999954;
23:08:33:328;0,1655;-0,2253;0,1489;56,39686962;37,52994355;15,22999954;
23:08:33:330;0,0942;-0,1618;-0,0080;56,39686962;37,52994355;15,22999954;
23:08:33:386;0,0942;-0,1618;-0,0080;56,39686962;37,52994355;15,22999954;
23:08:33:389;0,0942;-0,1618;-0,0080;56,39686962;37,52994355;15,22999954;
23:08:33:391;0,0071;-0,1554;-0,0758;56,39686962;37,52994355;15,22999954;
23:08:33:414;0,0071;-0,1554;-0,0758;56,39686962;37,52994355;15,22999954;
23:08:33:418;0,0137;-0,1396;-0,0680;56,39686962;37,52994355;15,22999954;
23:08:33:467;0,0137;-0,1396;-0,0680;56,39686962;37,52994355;15,22999954;
23:08:33:469;0,0137;-0,1396;-0,0680;56,39686962;37,52994355;15,22999954;
23:08:33:471;0,0459;-0,1349;-0,0299;56,39686962;37,52994355;15,22999954;
23:08:33:526;0,0459;-0,1349;-0,0299;56,39686962;37,52994355;15,22999954;
23:08:33:529;0,1318;-0,0910;0,0247;56,39686962;37,52994355;15,22999954;
23:08:33:532;0,1318;-0,0910;0,0247;56,39686962;37,52994355;15,22999954;
23:08:33:586;0,1318;-0,0910;0,0247;56,39686962;37,52994355;15,22999954;
23:08:33:590;0,1318;-0,0910;0,0247;56,39686962;37,52994355;15,22999954;
23:08:33:592;-0,0059;-0,0515;-0,0483;56,39686962;37,52994355;15,22999954;
23:08:33:646;-0,0059;-0,0515;-0,0483;56,39686962;37,52994355;15,22999954;
23:08:33:649;-0,0059;-0,0515;-0,0483;56,39686962;37,52994355;15,22999954;
23:08:33:651;0,0661;-0,0667;-0,2238;56,39686962;37,52994355;15,22999954;
23:08:33:677;0,0661;-0,0667;-0,2238;56,39686962;37,52994355;15,22999954;
23:08:33:725;0,0661;-0,0667;-0,2238;56,39699949;37,53000138;15,17000008;
23:08:33:727;0,0661;-0,0667;-0,2238;56,39699949;37,53000138;15,17000008;
23:08:33:728;0,0310;-0,0488;-0,0687;56,39699949;37,53000138;15,17000008;
23:08:33:787;0,0310;-0,0488;-0,0687;56,39699949;37,53000138;15,17000008;
23:08:33:789;0,0310;-0,0488;-0,0687;56,39699949;37,53000138;15,17000008;
23:08:33:790;-0,1017;-0,0860;-0,1685;56,39699949;37,53000138;15,17000008;
23:08:33:849;-0,1017;-0,0860;-0,1685;56,39699949;37,53000138;15,17000008;
23:08:33:852;-0,1017;-0,0860;-0,1685;56,39699949;37,53000138;15,17000008;
23:08:33:854;-0,0252;-0,0831;0,0116;56,39699949;37,53000138;15,17000008;
23:08:33:909;-0,0252;-0,0831;0,0116;56,39699949;37,53000138;15,17000008;
23:08:33:912;-0,0252;-0,0831;0,0116;56,39699949;37,53000138;15,17000008;
23:08:33:914;0,0250;-0,1394;0,2970;56,39699949;37,53000138;15,17000008;
23:08:33:938;0,0236;-0,1372;0,2921;56,39699949;37,53000138;15,17000008;
23:08:33:942;0,0236;-0,1372;0,2921;56,39699949;37,53000138;15,17000008;
23:08:33:999;0,0236;-0,1372;0,2921;56,39699949;37,53000138;15,17000008;
23:08:34:001;0,0236;-0,1372;0,2921;56,39699949;37,53000138;15,17000008;
23:08:34:003;0,0438;-0,1347;0,3121;56,39699949;37,53000138;15,17000008;
23:08:34:059;0,0438;-0,1347;0,3121;56,39699949;37,53000138;15,17000008;
23:08:34:062;0,0438;-0,1347;0,3121;56,39699949;37,53000138;15,17000008;
23:08:34:064;0,0694;-0,1123;0,1013;56,39699949;37,53000138;15,17000008;
23:08:34:120;0,0694;-0,1123;0,1013;56,39699949;37,53000138;15,17000008;
23:08:34:122;0,0694;-0,1123;0,1013;56,39699949;37,53000138;15,17000008;
23:08:34:124;-0,1160;-0,1309;0,1264;56,39699949;37,53000138;15,17000008;
23:08:34:181;-0,1160;-0,1309;0,1264;56,39699949;37,53000138;15,17000008;
23:08:34:184;-0,1160;-0,1309;0,1264;56,39699949;37,53000138;15,17000008;
23:08:34:186;-0,0032;-0,1047;0,1206;56,39699949;37,53000138;15,17000008;
23:08:34:205;-0,0032;-0,1047;0,1206;56,39699949;37,53000138;15,17000008;
23:08:34:258;-0,0032;-0,1047;0,1206;56,39699949;37,53000138;15,17000008;
23:08:34:260;-0,0032;-0,1047;0,1206;56,39699949;37,53000138;15,17000008;
23:08:34:261;-0,0503;-0,0772;0,0488;56,39699949;37,53000138;15,17000008;
23:08:34:319;-0,0503;-0,0772;0,0488;56,39699949;37,53000138;15,17000008;
23:08:34:322;-0,0503;-0,0772;0,0488;56,39699949;37,53000138;15,17000008;
23:08:34:324;-0,0871;-0,1076;0,0276;56,39699949;37,53000138;15,17000008;
23:08:34:379;-0,0871;-0,1076;0,0276;56,39699949;37,53000138;15,17000008;
23:08:34:381;-0,0871;-0,1076;0,0276;56,39699949;37,53000138;15,17000008;
23:08:34:383;-0,0818;0,0347;-0,2929;56,39699949;37,53000138;15,17000008;
23:08:34:440;-0,0818;0,0347;-0,2929;56,39699949;37,53000138;15,17000008;
23:08:34:442;-0,0818;0,0347;-0,2929;56,39699949;37,53000138;15,17000008;
23:08:34:444;-0,1418;-0,0155;-0,1142;56,39699949;37,53000138;15,17000008;
23:08:34:520;-0,1418;-0,0155;-0,1142;56,39699949;37,53000138;15,17000008;
23:08:34:523;-0,1418;-0,0155;-0,1142;56,39699949;37,53000138;15,17000008;
23:08:34:524;-0,0937;-0,0740;0,0763;56,39699949;37,53000138;15,17000008;
23:08:34:580;-0,0937;-0,0740;0,0763;56,39699949;37,53000138;15,17000008;
23:08:34:583;-0,0937;-0,0740;0,0763;56,39699949;37,53000138;15,17000008;
23:08:34:585;-0,1623;0,0209;-0,1717;56,39699949;37,53000138;15,17000008;
23:08:34:641;-0,1623;0,0209;-0,1717;56,39699949;37,53000138;15,17000008;
23:08:34:648;-0,1623;0,0209;-0,1717;56,39699949;37,53000138;15,17000008;
23:08:34:650;-0,1122;-0,0799;-0,1200;56,39699949;37,53000138;15,17000008;
23:08:34:700;-0,1122;-0,0799;-0,1200;56,39699949;37,53000138;15,17000008;
23:08:34:703;-0,1122;-0,0799;-0,1200;56,39712700;37,53006130;14,93000031;
23:08:34:705;-0,0526;-0,0479;0,1524;56,39712700;37,53006130;14,93000031;
23:08:34:720;-0,0526;-0,0479;0,1524;56,39712700;37,53006130;14,93000031;
23:08:34:722;-0,0491;-0,0456;0,1500;56,39712700;37,53006130;14,93000031;
23:08:34:782;-0,0491;-0,0456;0,1500;56,39712700;37,53006130;14,93000031;
23:08:34:784;-0,0491;-0,0456;0,1500;56,39712700;37,53006130;14,93000031;
23:08:34:787;-0,1691;0,0149;0,0885;56,39712700;37,53006130;14,93000031;
23:08:34:842;-0,1691;0,0149;0,0885;56,39712700;37,53006130;14,93000031;
23:08:34:844;-0,1691;0,0149;0,0885;56,39712700;37,53006130;14,93000031;
23:08:34:846;-0,2447;-0,0526;-0,3038;56,39712700;37,53006130;14,93000031;
23:08:34:903;-0,2447;-0,0526;-0,3038;56,39712700;37,53006130;14,93000031;
23:08:34:905;-0,2447;-0,0526;-0,3038;56,39712700;37,53006130;14,93000031;
23:08:34:907;-0,1027;-0,0387;0,0534;56,39712700;37,53006130;14,93000031;
23:08:34:963;-0,1027;-0,0387;0,0534;56,39712700;37,53006130;14,93000031;
23:08:34:966;-0,1027;-0,0387;0,0534;56,39712700;37,53006130;14,93000031;
23:08:34:968;-0,1500;0,0566;-0,0566;56,39712700;37,53006130;14,93000031;
23:08:34:983;-0,1500;0,0566;-0,0566;56,39712700;37,53006130;14,93000031;
23:08:35:043;-0,1500;0,0566;-0,0566;56,39712700;37,53006130;14,93000031;
23:08:35:045;-0,1500;0,0566;-0,0566;56,39712700;37,53006130;14,93000031;
23:08:35:047;-0,0827;-0,0448;0,1592;56,39712700;37,53006130;14,93000031;
23:08:35:104;-0,0827;-0,0448;0,1592;56,39712700;37,53006130;14,93000031;
23:08:35:106;-0,0827;-0,0448;0,1592;56,39712700;37,53006130;14,93000031;
23:08:35:107;-0,0697;-0,0047;0,1240;56,39712700;37,53006130;14,93000031;
23:08:35:164;-0,0697;-0,0047;0,1240;56,39712700;37,53006130;14,93000031;
23:08:35:166;-0,0697;-0,0047;0,1240;56,39712700;37,53006130;14,93000031;
23:08:35:168;-0,0965;-0,0427;0,0348;56,39712700;37,53006130;14,93000031;
23:08:35:223;-0,0965;-0,0427;0,0348;56,39712700;37,53006130;14,93000031;
23:08:35:225;-0,0965;-0,0427;0,0348;56,39712700;37,53006130;14,93000031;
23:08:35:226;0,0293;-0,0042;-0,0517;56,39712700;37,53006130;14,93000031;
23:08:35:304;0,0293;-0,0042;-0,0517;56,39712700;37,53006130;14,93000031;
23:08:35:307;0,0293;-0,0042;-0,0517;56,39712700;37,53006130;14,93000031;
23:08:35:309;-0,0700;-0,0188;0,0992;56,39712700;37,53006130;14,93000031;
23:08:35:365;-0,0700;-0,0188;0,0992;56,39712700;37,53006130;14,93000031;
23:08:35:367;-0,0700;-0,0188;0,0992;56,39712700;37,53006130;14,93000031;
23:08:35:369;-0,0498;-0,0535;0,1707;56,39712700;37,53006130;14,93000031;
23:08:35:425;-0,0498;-0,0535;0,1707;56,39712700;37,53006130;14,93000031;
23:08:35:428;-0,0498;-0,0535;0,1707;56,39712700;37,53006130;14,93000031;
23:08:35:429;-0,0749;-0,0908;0,3891;56,39712700;37,53006130;14,93000031;
23:08:35:486;-0,0749;-0,0908;0,3891;56,39712700;37,53006130;14,93000031;
23:08:35:487;-0,0749;-0,0908;0,3891;56,39712700;37,53006130;14,93000031;
23:08:35:489;-0,0960;-0,1349;0,3795;56,39712700;37,53006130;14,93000031;
23:08:35:506;-0,0960;-0,1349;0,3795;56,39712700;37,53006130;14,93000031;
23:08:35:508;-0,0977;-0,1513;0,3699;56,39712700;37,53006130;14,93000031;
23:08:35:567;-0,0977;-0,1513;0,3699;56,39712700;37,53006130;14,93000031;
23:08:35:569;-0,0977;-0,1513;0,3699;56,39712700;37,53006130;14,93000031;
23:08:35:571;-0,1458;-0,0508;0,1060;56,39712700;37,53006130;14,93000031;
23:08:35:626;-0,1458;-0,0508;0,1060;56,39712700;37,53006130;14,93000031;
23:08:35:629;-0,1458;-0,0508;0,1060;56,39712700;37,53006130;14,93000031;
23:08:35:630;-0,0824;-0,2072;0,5549;56,39712700;37,53006130;14,93000031;
23:08:35:686;-0,0824;-0,2072;0,5549;56,39712700;37,53006130;14,93000031;
23:08:35:688;-0,0824;-0,2072;0,5549;56,39725685;37,53012466;14,75000000;
23:08:35:690;-0,0698;-0,1505;0,5483;56,39725685;37,53012466;14,75000000;
23:08:35:746;-0,0698;-0,1505;0,5483;56,39725685;37,53012466;14,75000000;
23:08:35:748;-0,0698;-0,1505;0,5483;56,39725685;37,53012466;14,75000000;
23:08:35:749;-0,0984;-0,0040;-0,2548;56,39725685;37,53012466;14,75000000;
23:08:35:768;-0,0984;-0,0040;-0,2548;56,39725685;37,53012466;14,75000000;
23:08:35:828;-0,0984;-0,0040;-0,2548;56,39725685;37,53012466;14,75000000;
23:08:35:830;-0,0984;-0,0040;-0,2548;56,39725685;37,53012466;14,75000000;
23:08:35:831;-0,0465;-0,0444;-0,2126;56,39725685;37,53012466;14,75000000;
23:08:35:887;-0,0465;-0,0444;-0,2126;56,39725685;37,53012466;14,75000000;
23:08:35:889;-0,0465;-0,0444;-0,2126;56,39725685;37,53012466;14,75000000;
23:08:35:891;-0,1335;-0,0268;0,1024;56,39725685;37,53012466;14,75000000;
23:08:35:948;-0,1335;-0,0268;0,1024;56,39725685;37,53012466;14,75000000;
23:08:35:950;-0,1335;-0,0268;0,1024;56,39725685;37,53012466;14,75000000;
23:08:35:951;-0,2789;-0,0390;-0,1321;56,39725685;37,53012466;14,75000000;
