
time;ax;ay;az;Latitude;Longitude;Speed (m/s);
22:52:14:763;0,0000;0,0000;0,0000;0,00000000;0,00000000;0,00000000;
22:52:14:764;0,0000;0,0000;0,0000;56,35132692;37,52074575;0,00000000;
22:52:14:766;0,0000;0,0000;0,0000;56,35132692;37,52074575;0,00000000;
22:52:14:767;0,0000;0,0000;0,0000;56,35132692;37,52074575;0,00000000;
22:52:14:767;0,0000;0,0000;0,0000;56,35132692;37,52074575;0,00000000;
22:52:14:768;0,0000;0,0000;0,0000;56,35132692;37,52074575;0,00000000;
22:52:14:769;0,0000;0,0000;0,0000;56,35132692;37,52074575;0,00000000;
22:52:14:770;0,0000;0,0000;0,0000;56,35132692;37,52074575;0,00000000;
22:52:14:771;0,0000;0,0000;0,0000;56,35132692;37,52074575;0,00000000;
22:52:14:828;0,0000;0,0000;0,0000;56,35132692;37,52074575;0,00000000;
22:52:14:829;0,0000;0,0000;0,0000;56,35132692;37,52074575;0,00000000;
22:52:14:830;0,0000;0,0000;0,0000;56,35132692;37,52074575;0,00000000;
22:52:14:831;0,0000;0,0000;0,0000;56,35132692;37,52074575;0,00000000;
22:52:14:831;0,0000;0,0000;0,0000;56,35132692;37,52074575;0,00000000;
22:52:14:832;0,0000;0,0000;0,0000;56,35132692;37,52074575;0,00000000;
22:52:14:832;0,0000;0,0000;0,0000;56,35132692;37,52074575;0,00000000;
22:52:14:846;0,0000;0,0000;0,0000;56,35132692;37,52074575;0,00000000;
22:52:14:847;0,0000;0,0000;-0,0000;56,35132692;37,52074575;0,00000000;
22:52:14:895;0,0000;0,0000;-0,0000;56,35132692;37,52074575;0,00000000;
22:52:14:897;-0,3145;0,2608;-0,2138;56,35132692;37,52074575;0,00000000;
22:52:14:978;-0,3145;0,2608;-0,2138;56,35132692;37,52074575;0,00000000;
22:52:14:979;-0,2250;0,1765;-0,1377;56,35132692;37,52074575;0,00000000;
22:52:14:980;-0,2250;0,1765;-0,1377;56,35132692;37,52074575;0,00000000;
22:52:14:981;-0,2250;0,1765;-0,1377;56,35132692;37,52074575;0,00000000;
22:52:14:982;-0,2250;0,1765;-0,1377;56,35132692;37,52074575;0,00000000;
22:52:15:038;-0,2250;0,1765;-0,1377;56,35132692;37,52074575;0,00000000;
22:52:15:041;-0,3343;0,2487;0,2739;56,35132692;37,52074575;0,00000000;
22:52:15:059;-0,3343;0,2487;0,2739;56,35132692;37,52074575;0,00000000;
22:52:15:062;-0,3343;0,2487;0,2739;56,35132692;37,52074575;0,00000000;
22:52:15:064;-0,3343;0,2487;0,2739;56,35132692;37,52074575;0,00000000;
22:52:15:066;-0,3343;0,2487;0,2739;56,35132692;37,52074575;0,00000000;
22:52:15:109;-0,3343;0,2487;0,2739;56,35132692;37,52074575;0,00000000;
22:52:15:111;-0,4087;-1,0701;-1,9240;56,35132692;37,52074575;0,00000000;
22:52:15:132;-0,4087;-1,0701;-1,9240;56,35132692;37,52074575;0,00000000;
22:52:15:133;-0,4087;-1,0701;-1,9240;56,35132692;37,52074575;0,00000000;
22:52:15:135;-0,4087;-1,0701;-1,9240;56,35132692;37,52074575;0,00000000;
22:52:15:179;-0,4087;-1,0701;-1,9240;56,35132692;37,52074575;0,00000000;
22:52:15:181;0,0686;-0,2173;-0,5553;56,35132692;37,52074575;0,00000000;
22:52:15:240;0,0686;-0,2173;-0,5553;56,35132692;37,52074575;0,00000000;
22:52:15:242;0,0686;-0,2173;-0,5553;56,35132692;37,52074575;0,00000000;
22:52:15:244;0,0686;-0,2173;-0,5553;56,35132692;37,52074575;0,00000000;
22:52:15:246;0,0686;-0,2173;-0,5553;56,35132692;37,52074575;0,00000000;
22:52:15:248;0,0686;-0,2173;-0,5553;56,35132692;37,52074575;0,00000000;
22:52:15:249;0,0686;-0,2173;-0,5553;56,35132692;37,52074575;0,00000000;
22:52:15:251;0,0686;-0,2173;-0,5553;56,35132692;37,52074575;0,00000000;
22:52:15:252;0,4603;0,2271;1,4341;56,35132692;37,52074575;0,00000000;
22:52:15:301;0,4603;0,2271;1,4341;56,35132692;37,52074575;0,00000000;
22:52:15:302;0,5970;0,4842;1,9360;56,35132692;37,52074575;0,00000000;
22:52:15:317;0,5970;0,4842;1,9360;56,35132692;37,52074575;0,00000000;
22:52:15:318;0,5970;0,4842;1,9360;56,35132692;37,52074575;0,00000000;
22:52:15:320;0,5970;0,4842;1,9360;56,35132692;37,52074575;0,00000000;
22:52:15:321;0,5970;0,4842;1,9360;56,35132692;37,52074575;0,00000000;
22:52:15:374;0,3044;0,1310;1,5313;56,35132692;37,52074575;0,00000000;
22:52:15:378;0,3044;0,1310;1,5313;56,35132692;37,52074575;0,00000000;
22:52:15:380;0,3044;0,1310;1,5313;56,35132692;37,52074575;0,00000000;
22:52:15:381;0,3044;0,1310;1,5313;56,35132692;37,52074575;0,00000000;
22:52:15:383;0,3044;0,1310;1,5313;56,35132692;37,52074575;0,00000000;
22:52:15:387;0,3044;0,1310;1,5313;56,35132692;37,52074575;0,00000000;
22:52:15:388;-0,1347;0,2303;1,3587;56,35132692;37,52074575;0,00000000;
22:52:15:441;-0,1347;0,2303;1,3587;56,35132692;37,52074575;0,00000000;
22:52:15:442;-0,1347;0,2303;1,3587;56,35132692;37,52074575;0,00000000;
22:52:15:443;-0,1347;0,2303;1,3587;56,35132692;37,52074575;0,00000000;
22:52:15:444;-0,1347;0,2303;1,3587;56,35132692;37,52074575;0,00000000;
22:52:15:445;-0,3181;-0,3946;1,0381;56,35132692;37,52074575;0,00000000;
22:52:15:500;-0,3181;-0,3946;1,0381;56,35132692;37,52074575;0,00000000;
22:52:15:500;0,9193;-0,3337;0,3396;56,35132692;37,52074575;0,00000000;
22:52:15:519;0,9193;-0,3337;0,3396;56,35132692;37,52074575;0,00000000;
22:52:15:520;0,9193;-0,3337;0,3396;56,35132692;37,52074575;0,00000000;
22:52:15:521;0,9193;-0,3337;0,3396;56,35132692;37,52074575;0,00000000;
22:52:15:522;0,9193;-0,3337;0,3396;56,35132692;37,52074575;0,00000000;
22:52:15:581;0,6938;-0,0040;0,3448;56,35132692;37,52074575;0,00000000;
22:52:15:587;0,6938;-0,0040;0,3448;56,35132692;37,52074575;0,00000000;
22:52:15:588;0,6938;-0,0040;0,3448;56,35132692;37,52074575;0,00000000;
22:52:15:589;0,6938;-0,0040;0,3448;56,35132692;37,52074575;0,00000000;
22:52:15:590;0,6938;-0,0040;0,3448;56,35132692;37,52074575;0,00000000;
22:52:15:645;0,6938;-0,0040;0,3448;56,35132692;37,52074575;0,00000000;
22:52:15:648;0,5635;0,2720;0,5364;56,35132692;37,52074575;0,00000000;
22:52:15:665;0,5635;0,2720;0,5364;56,35132692;37,52074575;0,00000000;
22:52:15:666;0,5635;0,2720;0,5364;56,35132692;37,52074575;0,00000000;
22:52:15:666;0,5635;0,2720;0,5364;56,35132692;37,52074575;0,00000000;
22:52:15:667;0,5635;0,2720;0,5364;56,35132692;37,52074575;0,00000000;
22:52:15:722;0,5635;0,2720;0,5364;56,35132692;37,52074575;0,00000000;
22:52:15:723;0,2656;-0,1413;1,8247;56,35132692;37,52074575;0,00000000;
22:52:15:743;0,2656;-0,1413;1,8247;56,35132692;37,52074575;0,00000000;
22:52:15:744;0,2656;-0,1413;1,8247;56,35132692;37,52074575;0,00000000;
22:52:15:746;0,2656;-0,1413;1,8247;56,35132692;37,52074575;0,00000000;
22:52:15:747;0,2656;-0,1413;1,8247;56,35132692;37,52074575;0,00000000;
22:52:15:747;0,2656;-0,1413;1,8247;56,35132692;37,52074575;0,00000000;
22:52:15:748;1,7393;0,0732;2,6693;56,35132692;37,52074575;0,00000000;
22:52:15:802;1,7393;0,0732;2,6693;56,35132692;37,52074575;0,00000000;
22:52:15:804;0,7286;-0,0673;0,5428;56,35132692;37,52074575;0,00000000;
22:52:15:806;0,7286;-0,0673;0,5428;56,35132692;37,52074575;0,00000000;
22:52:15:807;0,7286;-0,0673;0,5428;56,35132692;37,52074575;0,00000000;
22:52:15:809;0,7286;-0,0673;0,5428;56,35132692;37,52074575;0,00000000;
22:52:15:863;0,7286;-0,0673;0,5428;56,35132692;37,52074575;0,00000000;
22:52:15:865;0,6061;-0,3972;0,6911;56,35132692;37,52074575;0,00000000;
22:52:15:882;0,6061;-0,3972;0,6911;56,35132692;37,52074575;0,00000000;
22:52:15:884;0,6061;-0,3972;0,6911;56,35132692;37,52074575;0,00000000;
22:52:15:886;0,6061;-0,3972;0,6911;56,35132692;37,52074575;0,00000000;
22:52:15:888;0,6061;-0,3972;0,6911;56,35132692;37,52074575;0,00000000;
22:52:15:962;0,6061;-0,3972;0,6911;56,35132692;37,52074575;0,00000000;
22:52:15:964;-0,4132;-0,6683;-1,4536;56,35132692;37,52074575;0,00000000;
22:52:15:966;-0,4132;-0,6683;-1,4536;56,35132692;37,52074575;0,00000000;
22:52:15:967;-0,4132;-0,6683;-1,4536;56,35132692;37,52074575;0,00000000;
22:52:15:969;-0,4132;-0,6683;-1,4536;56,35132692;37,52074575;0,00000000;
22:52:15:970;-0,4132;-0,6683;-1,4536;56,35132692;37,52074575;0,00000000;
22:52:16:012;-0,4132;-0,6683;-1,4536;56,35132692;37,52074575;0,00000000;
22:52:16:014;-1,2884;-0,9218;-1,4647;56,35132692;37,52074575;0,00000000;
22:52:16:020;-1,2884;-0,9218;-1,4647;56,35132692;37,52074575;0,00000000;
22:52:16:021;-1,2884;-0,9218;-1,4647;56,35132692;37,52074575;0,00000000;
22:52:16:021;-1,2884;-0,9218;-1,4647;56,35132692;37,52074575;0,00000000;
22:52:16:074;-1,2884;-0,9218;-1,4647;56,35132692;37,52074575;0,00000000;
22:52:16:076;-1,2028;-0,7112;-0,0831;56,35132692;37,52074575;0,00000000;
22:52:16:099;-1,2028;-0,7112;-0,0831;56,35132692;37,52074575;0,00000000;
22:52:16:102;-1,2028;-0,7112;-0,0831;56,35132692;37,52074575;0,00000000;
22:52:16:105;-1,2028;-0,7112;-0,0831;56,35132692;37,52074575;0,00000000;
22:52:16:107;-1,2028;-0,7112;-0,0831;56,35132692;37,52074575;0,00000000;
22:52:16:154;-1,2028;-0,7112;-0,0831;56,35132692;37,52074575;0,00000000;
22:52:16:155;0,1766;-0,6312;1,2880;56,35132692;37,52074575;0,00000000;
22:52:16:177;0,1766;-0,6312;1,2880;56,35132692;37,52074575;0,00000000;
22:52:16:179;0,1766;-0,6312;1,2880;56,35132692;37,52074575;0,00000000;
22:52:16:181;0,1766;-0,6312;1,2880;56,35132692;37,52074575;0,00000000;
22:52:16:183;0,1766;-0,6312;1,2880;56,35132692;37,52074575;0,00000000;
22:52:16:184;0,1766;-0,6312;1,2880;56,35132692;37,52074575;0,00000000;
22:52:16:186;-0,8325;-0,4697;-1,3388;56,35132692;37,52074575;0,00000000;
22:52:16:235;-0,8325;-0,4697;-1,3388;56,35132692;37,52074575;0,00000000;
22:52:16:237;-0,4428;-1,4291;-1,6597;56,35132692;37,52074575;0,00000000;
22:52:16:240;-0,4428;-1,4291;-1,6597;56,35132692;37,52074575;0,00000000;
22:52:16:242;-0,4428;-1,4291;-1,6597;56,35132692;37,52074575;0,00000000;
22:52:16:244;-0,4428;-1,4291;-1,6597;56,35132692;37,52074575;0,00000000;
22:52:16:296;-0,4428;-1,4291;-1,6597;56,35132692;37,52074575;0,00000000;
22:52:16:298;1,0606;-1,2467;-2,5452;56,35132692;37,52074575;0,00000000;
22:52:16:315;1,0606;-1,2467;-2,5452;56,35132692;37,52074575;0,00000000;
22:52:16:317;1,0606;-1,2467;-2,5452;56,35132692;37,52074575;0,00000000;
22:52:16:319;1,0606;-1,2467;-2,5452;56,35132692;37,52074575;0,00000000;
22:52:16:320;1,0606;-1,2467;-2,5452;56,35132692;37,52074575;0,00000000;
22:52:16:376;1,0606;-1,2467;-2,5452;56,35132692;37,52074575;0,00000000;
22:52:16:378;0,8842;-0,9298;-1,9790;56,35132692;37,52074575;0,00000000;
22:52:16:395;0,8842;-0,9298;-1,9790;56,35132692;37,52074575;0,00000000;
22:52:16:397;0,8842;-0,9298;-1,9790;56,35132692;37,52074575;0,00000000;
22:52:16:399;0,8842;-0,9298;-1,9790;56,35132692;37,52074575;0,00000000;
22:52:16:416;0,8842;-0,9298;-1,9790;56,35132692;37,52074575;0,00000000;
22:52:16:418;1,8368;-0,1357;-1,1322;56,35132692;37,52074575;0,00000000;
22:52:16:453;1,8368;-0,1357;-1,1322;56,35132692;37,52074575;0,00000000;
22:52:16:455;1,8368;-0,1357;-1,1322;56,35132692;37,52074575;0,00000000;
22:52:16:478;1,8368;-0,1357;-1,1322;56,35132692;37,52074575;0,00000000;
22:52:16:480;0,0396;0,2422;2,5146;56,35132692;37,52074575;0,00000000;
22:52:16:532;0,0396;0,2422;2,5146;56,35132692;37,52074575;0,00000000;
22:52:16:533;0,0396;0,2422;2,5146;56,35132692;37,52074575;0,00000000;
22:52:16:534;0,0396;0,2422;2,5146;56,35132692;37,52074575;0,00000000;
22:52:16:537;0,0396;0,2422;2,5146;56,35132692;37,52074575;0,00000000;
22:52:16:539;0,0396;0,2422;2,5146;56,35132692;37,52074575;0,00000000;
22:52:16:540;0,0396;0,2422;2,5146;56,35132692;37,52074575;0,00000000;
22:52:16:542;-0,4639;0,6827;2,3269;56,35132692;37,52074575;0,00000000;
22:52:16:586;-0,4639;0,6827;2,3269;56,35132692;37,52074575;0,00000000;
22:52:16:588;0,8149;0,3815;1,2661;56,35132692;37,52074575;0,00000000;
22:52:16:613;0,8149;0,3815;1,2661;56,35132692;37,52074575;0,00000000;
22:52:16:616;0,8149;0,3815;1,2661;56,35132692;37,52074575;0,00000000;
22:52:16:617;0,8149;0,3815;1,2661;56,35132692;37,52074575;0,00000000;
22:52:16:619;0,8149;0,3815;1,2661;56,35132692;37,52074575;0,00000000;
22:52:16:667;-0,4429;-0,4323;-0,4133;56,35132692;37,52074575;0,00000000;
22:52:16:669;-0,4429;-0,4323;-0,4133;56,35132692;37,52074575;0,00000000;
22:52:16:672;-0,4429;-0,4323;-0,4133;56,35132692;37,52074575;0,00000000;
22:52:16:674;-0,4429;-0,4323;-0,4133;56,35132692;37,52074575;0,00000000;
22:52:16:677;-0,4429;-0,4323;-0,4133;56,35132692;37,52074575;0,00000000;
22:52:16:728;-0,4429;-0,4323;-0,4133;56,35132692;37,52074575;0,00000000;
22:52:16:729;-0,9852;1,2234;1,0188;56,35132692;37,52074575;0,00000000;
22:52:16:746;-0,9852;1,2234;1,0188;56,35132692;37,52074575;0,00000000;
22:52:16:748;-0,9852;1,2234;1,0188;56,35132692;37,52074575;0,00000000;
22:52:16:749;-0,9852;1,2234;1,0188;56,35132692;37,52074575;0,00000000;
22:52:16:750;-0,9852;1,2234;1,0188;56,35132692;37,52074575;0,00000000;
22:52:16:807;-0,9852;1,2234;1,0188;56,35132692;37,52074575;0,00000000;
22:52:16:812;-1,6233;2,4572;-1,7375;56,35132692;37,52074575;0,00000000;
22:52:16:824;-1,6233;2,4572;-1,7375;56,35132692;37,52074575;0,00000000;
22:52:16:825;-1,6233;2,4572;-1,7375;56,35132692;37,52074575;0,00000000;
22:52:16:827;-1,6233;2,4572;-1,7375;56,35132692;37,52074575;0,00000000;
22:52:16:828;-1,6233;2,4572;-1,7375;56,35132692;37,52074575;0,00000000;
22:52:16:881;-1,6233;2,4572;-1,7375;56,35132692;37,52074575;0,00000000;
22:52:16:883;0,3817;1,4146;-0,4269;56,35132692;37,52074575;0,00000000;
22:52:16:887;0,3817;1,4146;-0,4269;56,35132692;37,52074575;0,00000000;
22:52:16:889;0,3817;1,4146;-0,4269;56,35132692;37,52074575;0,00000000;
22:52:16:890;0,3817;1,4146;-0,4269;56,35132692;37,52074575;0,00000000;
22:52:16:930;0,3817;1,4146;-0,4269;56,35132692;37,52074575;0,00000000;
22:52:16:933;1,3287;1,2704;1,5253;56,35132692;37,52074575;0,00000000;
22:52:16:963;1,3287;1,2704;1,5253;56,35132692;37,52074575;0,00000000;
22:52:16:966;1,3287;1,2704;1,5253;56,35132692;37,52074575;0,00000000;
22:52:16:968;1,3287;1,2704;1,5253;56,35132692;37,52074575;0,00000000;
22:52:16:969;1,3287;1,2704;1,5253;56,35132692;37,52074575;0,00000000;
22:52:16:971;1,3287;1,2704;1,5253;56,35132692;37,52074575;0,00000000;
22:52:16:972;2,2532;-0,0181;-0,1398;56,35132692;37,52074575;0,00000000;
22:52:17:020;2,2532;-0,0181;-0,1398;56,35132692;37,52074575;0,00000000;
22:52:17:022;-0,4887;-1,4659;-1,3104;56,35132692;37,52074575;0,00000000;
22:52:17:042;-0,4887;-1,4659;-1,3104;56,35132692;37,52074575;0,00000000;
22:52:17:044;-0,4887;-1,4659;-1,3104;56,35132692;37,52074575;0,00000000;
22:52:17:045;-0,4887;-1,4659;-1,3104;56,35132692;37,52074575;0,00000000;
22:52:17:047;-0,4887;-1,4659;-1,3104;56,35132692;37,52074575;0,00000000;
22:52:17:099;-0,4887;-1,4659;-1,3104;56,35132692;37,52074575;0,00000000;
22:52:17:101;-1,1175;-0,9350;-0,5123;56,35132692;37,52074575;0,00000000;
22:52:17:103;-1,1175;-0,9350;-0,5123;56,35132692;37,52074575;0,00000000;
22:52:17:105;-1,1175;-0,9350;-0,5123;56,35132692;37,52074575;0,00000000;
22:52:17:107;-1,1175;-0,9350;-0,5123;56,35132692;37,52074575;0,00000000;
22:52:17:163;-1,1175;-0,9350;-0,5123;56,35132692;37,52074575;0,00000000;
22:52:17:167;-0,4381;-0,6196;0,2090;56,35132692;37,52074575;0,00000000;
22:52:17:181;-0,4381;-0,6196;0,2090;56,35132692;37,52074575;0,00000000;
22:52:17:183;-0,4381;-0,6196;0,2090;56,35132692;37,52074575;0,00000000;
22:52:17:185;-0,4381;-0,6196;0,2090;56,35132692;37,52074575;0,00000000;
22:52:17:188;-0,4381;-0,6196;0,2090;56,35132692;37,52074575;0,00000000;
22:52:17:193;-0,4381;-0,6196;0,2090;56,35132692;37,52074575;0,00000000;
22:52:17:195;-0,5041;-0,7773;0,1916;56,35132692;37,52074575;0,00000000;
22:52:17:250;-0,5041;-0,7773;0,1916;56,35132692;37,52074575;0,00000000;
22:52:17:253;-0,2019;-1,6934;-0,1331;56,35132692;37,52074575;0,00000000;
22:52:17:255;-0,2019;-1,6934;-0,1331;56,35132692;37,52074575;0,00000000;
22:52:17:256;-0,2019;-1,6934;-0,1331;56,35132692;37,52074575;0,00000000;
22:52:17:258;-0,2019;-1,6934;-0,1331;56,35132692;37,52074575;0,00000000;
22:52:17:312;-0,2019;-1,6934;-0,1331;56,35132692;37,52074575;0,00000000;
22:52:17:316;0,0757;-1,3563;-0,9564;56,35132692;37,52074575;0,00000000;
22:52:17:319;0,0757;-1,3563;-0,9564;56,35132692;37,52074575;0,00000000;
22:52:17:321;0,0757;-1,3563;-0,9564;56,35132692;37,52074575;0,00000000;
22:52:17:322;0,0757;-1,3563;-0,9564;56,35132692;37,52074575;0,00000000;
22:52:17:371;0,0757;-1,3563;-0,9564;56,35132692;37,52074575;0,00000000;
22:52:17:373;-1,6312;-0,2389;-0,5447;56,35132692;37,52074575;0,00000000;
22:52:17:396;-1,6312;-0,2389;-0,5447;56,35132692;37,52074575;0,00000000;
22:52:17:398;-1,6312;-0,2389;-0,5447;56,35132692;37,52074575;0,00000000;
22:52:17:400;-1,6312;-0,2389;-0,5447;56,35132692;37,52074575;0,00000000;
22:52:17:402;-1,6312;-0,2389;-0,5447;56,35132692;37,52074575;0,00000000;
22:52:17:450;-1,6312;-0,2389;-0,5447;56,35132692;37,52074575;0,00000000;
22:52:17:451;-0,5601;-0,6079;2,6155;56,35132692;37,52074575;0,00000000;
22:52:17:474;-0,5601;-0,6079;2,6155;56,35132692;37,52074575;0,00000000;
22:52:17:477;-0,5601;-0,6079;2,6155;56,35132692;37,52074575;0,00000000;
22:52:17:479;-0,5601;-0,6079;2,6155;56,35132692;37,52074575;0,00000000;
22:52:17:482;-0,5601;-0,6079;2,6155;56,35132692;37,52074575;0,00000000;
22:52:17:534;-0,5601;-0,6079;2,6155;56,35132692;37,52074575;0,00000000;
22:52:17:536;-0,5601;-0,6079;2,6155;56,35132692;37,52074575;0,00000000;
22:52:17:537;-0,5601;-0,6079;2,6155;56,35132692;37,52074575;0,00000000;
22:52:17:538;-0,5601;-0,6079;2,6155;56,35132692;37,52074575;0,00000000;
22:52:17:539;0,5433;-0,3278;-0,2833;56,35132692;37,52074575;0,00000000;
22:52:17:593;0,5433;-0,3278;-0,2833;56,35132692;37,52074575;0,00000000;
22:52:17:597;-0,5039;-0,1781;-0,1045;56,35132692;37,52074575;0,00000000;
22:52:17:613;-0,3429;-0,2165;-0,1043;56,35132692;37,52074575;0,00000000;
22:52:17:616;-0,3429;-0,2165;-0,1043;56,35132692;37,52074575;0,00000000;
22:52:17:618;-0,3429;-0,2165;-0,1043;56,35132692;37,52074575;0,00000000;
22:52:17:620;-0,3429;-0,2165;-0,1043;56,35132692;37,52074575;0,00000000;
22:52:17:622;-0,3429;-0,2165;-0,1043;56,35132692;37,52074575;0,00000000;
22:52:17:623;-0,3429;-0,2165;-0,1043;56,35132692;37,52074575;0,00000000;
22:52:17:672;-0,3429;-0,2165;-0,1043;56,35132692;37,52074575;0,00000000;
22:52:17:674;0,2808;-0,2303;-0,0820;56,35132692;37,52074575;0,00000000;
22:52:17:690;0,2808;-0,2303;-0,0820;56,35132692;37,52074575;0,00000000;
22:52:17:692;0,2808;-0,2303;-0,0820;56,35132692;37,52074575;0,00000000;
22:52:17:693;0,2808;-0,2303;-0,0820;56,35132692;37,52074575;0,00000000;
22:52:17:695;0,2808;-0,2303;-0,0820;56,35132692;37,52074575;0,00000000;
22:52:17:751;0,2808;-0,2303;-0,0820;56,35132692;37,52074575;0,00000000;
22:52:17:773;0,2808;-0,2303;-0,0820;56,35132692;37,52074575;0,00000000;
22:52:17:775;-0,2556;-0,0002;0,1895;56,35132692;37,52074575;0,00000000;
22:52:17:830;-0,2556;-0,0002;0,1895;56,35132692;37,52074575;0,00000000;
22:52:17:832;-0,2418;-0,1799;0,1110;56,35117084;37,52150538;0,50999999;
22:52:17:834;-0,2418;-0,1799;0,1110;56,35117084;37,52150538;0,50999999;
22:52:17:836;-0,2418;-0,1799;0,1110;56,35117084;37,52150538;0,50999999;
22:52:17:837;-0,2418;-0,1799;0,1110;56,35117084;37,52150538;0,50999999;
22:52:17:839;-0,2418;-0,1799;0,1110;56,35117084;37,52150538;0,50999999;
22:52:17:839;-0,2418;-0,1799;0,1110;56,35117084;37,52150538;0,50999999;
22:52:17:841;-0,2418;-0,1799;0,1110;56,35117084;37,52150538;0,50999999;
22:52:17:882;-0,2418;-0,1799;0,1110;56,35117084;37,52150538;0,50999999;
22:52:17:883;-0,8831;-0,1947;-1,3613;56,35117084;37,52150538;0,50999999;
22:52:17:906;-0,8831;-0,1947;-1,3613;56,35117084;37,52150538;0,50999999;
22:52:17:908;-0,8831;-0,1947;-1,3613;56,35117084;37,52150538;0,50999999;
22:52:17:909;-0,8831;-0,1947;-1,3613;56,35117084;37,52150538;0,50999999;
22:52:17:910;-0,8831;-0,1947;-1,3613;56,35117084;37,52150538;0,50999999;
22:52:17:963;-0,8831;-0,1947;-1,3613;56,35117084;37,52150538;0,50999999;
22:52:17:966;1,4546;-0,4521;-0,3478;56,35117084;37,52150538;0,50999999;
22:52:17:968;1,4546;-0,4521;-0,3478;56,35117084;37,52150538;0,50999999;
22:52:17:969;1,4546;-0,4521;-0,3478;56,35117084;37,52150538;0,50999999;
22:52:17:970;1,4546;-0,4521;-0,3478;56,35117084;37,52150538;0,50999999;
22:52:18:024;1,4546;-0,4521;-0,3478;56,35117084;37,52150538;0,50999999;
22:52:18:027;-0,2286;-0,2541;1,2929;56,35117084;37,52150538;0,50999999;
22:52:18:046;-0,2286;-0,2541;1,2929;56,35117084;37,52150538;0,50999999;
22:52:18:048;-0,2286;-0,2541;1,2929;56,35117084;37,52150538;0,50999999;
22:52:18:050;-0,2286;-0,2541;1,2929;56,35117084;37,52150538;0,50999999;
22:52:18:051;-0,2286;-0,2541;1,2929;56,35117084;37,52150538;0,50999999;
22:52:18:052;-0,2286;-0,2541;1,2929;56,35117084;37,52150538;0,50999999;
22:52:18:053;-0,2592;-0,0321;-0,6274;56,35117084;37,52150538;0,50999999;
22:52:18:104;-0,2592;-0,0321;-0,6274;56,35117084;37,52150538;0,50999999;
22:52:18:106;-0,2458;-0,1643;0,0583;56,35117084;37,52150538;0,50999999;
22:52:18:122;-0,2458;-0,1643;0,0583;56,35117084;37,52150538;0,50999999;
22:52:18:123;-0,2458;-0,1643;0,0583;56,35117084;37,52150538;0,50999999;
22:52:18:125;-0,2458;-0,1643;0,0583;56,35117084;37,52150538;0,50999999;
22:52:18:175;-0,2458;-0,1643;0,0583;56,35117084;37,52150538;0,50999999;
22:52:18:178;-0,1104;-0,1621;-0,4744;56,35117084;37,52150538;0,50999999;
22:52:18:182;-0,1104;-0,1621;-0,4744;56,35117084;37,52150538;0,50999999;
22:52:18:184;-0,1104;-0,1621;-0,4744;56,35117084;37,52150538;0,50999999;
22:52:18:186;-0,1104;-0,1621;-0,4744;56,35117084;37,52150538;0,50999999;
22:52:18:228;-0,1104;-0,1621;-0,4744;56,35117084;37,52150538;0,50999999;
22:52:18:231;-0,1062;-0,0689;0,1102;56,35117084;37,52150538;0,50999999;
22:52:18:260;-0,1062;-0,0689;0,1102;56,35117084;37,52150538;0,50999999;
22:52:18:263;-0,1062;-0,0689;0,1102;56,35117084;37,52150538;0,50999999;
22:52:18:265;-0,1062;-0,0689;0,1102;56,35117084;37,52150538;0,50999999;
22:52:18:267;-0,1062;-0,0689;0,1102;56,35117084;37,52150538;0,50999999;
22:52:18:287;-0,1062;-0,0689;0,1102;56,35117084;37,52150538;0,50999999;
22:52:18:289;-0,0817;-0,0179;-0,0831;56,35117084;37,52150538;0,50999999;
22:52:18:338;-0,0817;-0,0179;-0,0831;56,35117084;37,52150538;0,50999999;
22:52:18:341;-0,3365;0,1574;-0,0324;56,35117084;37,52150538;0,50999999;
22:52:18:344;-0,3365;0,1574;-0,0324;56,35117084;37,52150538;0,50999999;
22:52:18:346;-0,3365;0,1574;-0,0324;56,35117084;37,52150538;0,50999999;
22:52:18:348;-0,3365;0,1574;-0,0324;56,35117084;37,52150538;0,50999999;
22:52:18:350;-0,3365;0,1574;-0,0324;56,35117084;37,52150538;0,50999999;
22:52:18:398;-0,3365;0,1574;-0,0324;56,35117084;37,52150538;0,50999999;
22:52:18:401;-0,4296;0,2716;-0,3176;56,35117084;37,52150538;0,50999999;
22:52:18:403;-0,4296;0,2716;-0,3176;56,35117084;37,52150538;0,50999999;
22:52:18:405;-0,4296;0,2716;-0,3176;56,35117084;37,52150538;0,50999999;
22:52:18:407;-0,4296;0,2716;-0,3176;56,35117084;37,52150538;0,50999999;
22:52:18:457;-0,4296;0,2716;-0,3176;56,35117084;37,52150538;0,50999999;
22:52:18:461;0,1551;-0,0279;0,3805;56,35117084;37,52150538;0,50999999;
22:52:18:477;0,1551;-0,0279;0,3805;56,35117084;37,52150538;0,50999999;
22:52:18:479;0,1551;-0,0279;0,3805;56,35117084;37,52150538;0,50999999;
22:52:18:480;0,1551;-0,0279;0,3805;56,35117084;37,52150538;0,50999999;
22:52:18:482;0,1551;-0,0279;0,3805;56,35117084;37,52150538;0,50999999;
22:52:18:547;0,1551;-0,0279;0,3805;56,35117084;37,52150538;0,50999999;
22:52:18:550;-0,0421;0,0232;-0,0893;56,35117084;37,52150538;0,50999999;
22:52:18:553;-0,0421;0,0232;-0,0893;56,35117084;37,52150538;0,50999999;
22:52:18:555;-0,0421;0,0232;-0,0893;56,35117084;37,52150538;0,50999999;
22:52:18:557;-0,0421;0,0232;-0,0893;56,35117084;37,52150538;0,50999999;
22:52:18:560;-0,0421;0,0232;-0,0893;56,35117084;37,52150538;0,50999999;
22:52:18:609;-0,0421;0,0232;-0,0893;56,35117084;37,52150538;0,50999999;
22:52:18:611;-0,0487;-0,0277;-0,0539;56,35117084;37,52150538;0,50999999;
22:52:18:614;-0,0487;-0,0277;-0,0539;56,35117084;37,52150538;0,50999999;
22:52:18:616;-0,0487;-0,0277;-0,0539;56,35117084;37,52150538;0,50999999;
22:52:18:618;-0,0487;-0,0277;-0,0539;56,35117084;37,52150538;0,50999999;
22:52:18:667;-0,0487;-0,0277;-0,0539;56,35117084;37,52150538;0,50999999;
22:52:18:669;-0,0217;-0,0178;-0,1355;56,35117084;37,52150538;0,50999999;
22:52:18:691;-0,0217;-0,0178;-0,1355;56,35117084;37,52150538;0,50999999;
22:52:18:694;-0,0217;-0,0178;-0,1355;56,35117084;37,52150538;0,50999999;
22:52:18:696;-0,0217;-0,0178;-0,1355;56,35117084;37,52150538;0,50999999;
22:52:18:697;-0,0217;-0,0178;-0,1355;56,35117084;37,52150538;0,50999999;
22:52:18:746;-0,0217;-0,0178;-0,1355;56,35117084;37,52150538;0,50999999;
22:52:18:748;-0,0327;-0,0116;-0,0964;56,35117084;37,52150538;0,50999999;
22:52:18:769;-0,0801;0,0030;-0,0350;56,35117084;37,52150538;0,50999999;
22:52:18:770;-0,0801;0,0030;-0,0350;56,35117084;37,52150538;0,50999999;
22:52:18:773;-0,0801;0,0030;-0,0350;56,35117084;37,52150538;0,50999999;
22:52:18:774;-0,0801;0,0030;-0,0350;56,35117084;37,52150538;0,50999999;
22:52:18:774;-0,0801;0,0030;-0,0350;56,35117084;37,52150538;0,50999999;
22:52:18:776;-0,0801;0,0030;-0,0350;56,35117084;37,52150538;0,50999999;
22:52:18:827;-0,0801;0,0030;-0,0350;56,35117084;37,52150538;0,50999999;
22:52:18:828;-0,0579;0,0255;0,0021;56,35117084;37,52150538;0,50999999;
22:52:18:830;-0,0579;0,0255;0,0021;56,35117084;37,52150538;0,50999999;
22:52:18:830;-0,0579;0,0255;0,0021;56,35117084;37,52150538;0,50999999;
22:52:18:831;-0,0579;0,0255;0,0021;56,35117084;37,52150538;0,50999999;
22:52:18:888;-0,0579;0,0255;0,0021;56,35117084;37,52150538;0,50999999;
22:52:18:896;-0,0391;0,0333;-0,0583;56,35117084;37,52150538;0,50999999;
22:52:18:906;-0,0391;0,0333;-0,0583;56,35117084;37,52150538;0,50999999;
22:52:18:908;-0,0391;0,0333;-0,0583;56,35117084;37,52150538;0,50999999;
22:52:18:911;-0,0391;0,0333;-0,0583;56,35117084;37,52150538;0,50999999;
22:52:18:913;-0,0391;0,0333;-0,0583;56,35117084;37,52150538;0,50999999;
22:52:18:969;-0,0391;0,0333;-0,0583;56,35117084;37,52150538;0,50999999;
22:52:18:973;-0,0161;0,1472;-0,0580;56,35117084;37,52150538;0,50999999;
22:52:18:984;-0,0161;0,1472;-0,0580;56,35117084;37,52150538;0,50999999;
22:52:18:986;-0,0161;0,1472;-0,0580;56,35117084;37,52150538;0,50999999;
22:52:18:986;-0,0161;0,1472;-0,0580;56,35117084;37,52150538;0,50999999;
22:52:19:007;-0,0161;0,1472;-0,0580;56,35117084;37,52150538;0,50999999;
22:52:19:008;0,0289;0,3775;-0,0005;56,35117084;37,52150538;0,50999999;
22:52:19:046;0,0289;0,3775;-0,0005;56,35117084;37,52150538;0,50999999;
22:52:19:048;0,0289;0,3775;-0,0005;56,35117084;37,52150538;0,50999999;
22:52:19:069;0,0289;0,3775;-0,0005;56,35117084;37,52150538;0,50999999;
22:52:19:071;0,0404;0,5281;0,0145;56,35117084;37,52150538;0,50999999;
22:52:19:123;0,0404;0,5281;0,0145;56,35117084;37,52150538;0,50999999;
22:52:19:124;0,0388;0,5161;0,0140;56,35117084;37,52150538;0,50999999;
22:52:19:126;0,0388;0,5161;0,0140;56,35117084;37,52150538;0,50999999;
22:52:19:128;0,0388;0,5161;0,0140;56,35117084;37,52150538;0,50999999;
22:52:19:129;0,0388;0,5161;0,0140;56,35117084;37,52150538;0,50999999;
22:52:19:129;0,0388;0,5161;0,0140;56,35117084;37,52150538;0,50999999;
22:52:19:130;0,0388;0,5161;0,0140;56,35117084;37,52150538;0,50999999;
22:52:19:179;0,0388;0,5161;0,0140;56,35117084;37,52150538;0,50999999;
22:52:19:180;-0,0276;0,5224;0,0095;56,35117084;37,52150538;0,50999999;
22:52:19:202;-0,0276;0,5224;0,0095;56,35117084;37,52150538;0,50999999;
22:52:19:203;-0,0276;0,5224;0,0095;56,35117084;37,52150538;0,50999999;
22:52:19:204;-0,0276;0,5224;0,0095;56,35117084;37,52150538;0,50999999;
22:52:19:205;-0,0276;0,5224;0,0095;56,35117084;37,52150538;0,50999999;
22:52:19:259;-0,0276;0,5224;0,0095;56,35117084;37,52150538;0,50999999;
22:52:19:261;-0,0132;0,2214;-0,0505;56,35117084;37,52150538;0,50999999;
22:52:19:262;-0,0132;0,2214;-0,0505;56,35117084;37,52150538;0,50999999;
22:52:19:263;-0,0132;0,2214;-0,0505;56,35117084;37,52150538;0,50999999;
22:52:19:264;-0,0132;0,2214;-0,0505;56,35117084;37,52150538;0,50999999;
22:52:19:320;-0,0132;0,2214;-0,0505;56,35117084;37,52150538;0,50999999;
22:52:19:321;-0,0011;0,2551;0,0107;56,35117084;37,52150538;0,50999999;
22:52:19:338;-0,0011;0,2551;0,0107;56,35117084;37,52150538;0,50999999;
22:52:19:340;-0,0011;0,2551;0,0107;56,35117084;37,52150538;0,50999999;
22:52:19:342;-0,0011;0,2551;0,0107;56,35117084;37,52150538;0,50999999;
22:52:19:344;-0,0011;0,2551;0,0107;56,35117084;37,52150538;0,50999999;
22:52:19:400;-0,0011;0,2551;0,0107;56,35117084;37,52150538;0,50999999;
22:52:19:402;-0,0010;0,2756;0,0363;56,35117084;37,52150538;0,50999999;
22:52:19:417;-0,0010;0,2756;0,0363;56,35117084;37,52150538;0,50999999;
22:52:19:418;-0,0010;0,2756;0,0363;56,35117084;37,52150538;0,50999999;
22:52:19:419;-0,0010;0,2756;0,0363;56,35117084;37,52150538;0,50999999;
22:52:19:420;-0,0010;0,2756;0,0363;56,35117084;37,52150538;0,50999999;
22:52:19:470;-0,0010;0,2756;0,0363;56,35117084;37,52150538;0,50999999;
22:52:19:472;-0,0332;0,2529;-0,0321;56,35117084;37,52150538;0,50999999;
22:52:19:477;-0,0332;0,2529;-0,0321;56,35117084;37,52150538;0,50999999;
22:52:19:479;-0,0332;0,2529;-0,0321;56,35117084;37,52150538;0,50999999;
22:52:19:480;-0,0332;0,2529;-0,0321;56,35117084;37,52150538;0,50999999;
22:52:19:523;-0,0332;0,2529;-0,0321;56,35117084;37,52150538;0,50999999;
22:52:19:524;0,0010;0,1879;-0,0825;56,35117084;37,52150538;0,50999999;
22:52:19:555;0,0010;0,1879;-0,0825;56,35117084;37,52150538;0,50999999;
22:52:19:557;0,0148;0,1359;-0,0109;56,35117084;37,52150538;0,50999999;
22:52:19:559;0,0148;0,1359;-0,0109;56,35117084;37,52150538;0,50999999;
22:52:19:560;0,0148;0,1359;-0,0109;56,35117084;37,52150538;0,50999999;
22:52:19:561;0,0148;0,1359;-0,0109;56,35117084;37,52150538;0,50999999;
22:52:19:562;0,0148;0,1359;-0,0109;56,35117084;37,52150538;0,50999999;
22:52:19:611;0,0148;0,1359;-0,0109;56,35117084;37,52150538;0,50999999;
22:52:19:612;0,0085;0,1212;0,0253;56,35117084;37,52150538;0,50999999;
22:52:19:633;0,0085;0,1212;0,0253;56,35117084;37,52150538;0,50999999;
22:52:19:635;0,0085;0,1212;0,0253;56,35117084;37,52150538;0,50999999;
22:52:19:637;0,0085;0,1212;0,0253;56,35117084;37,52150538;0,50999999;
22:52:19:638;0,0085;0,1212;0,0253;56,35117084;37,52150538;0,50999999;
22:52:19:691;0,0085;0,1212;0,0253;56,35117084;37,52150538;0,50999999;
22:52:19:692;-0,0095;0,1547;-0,0092;56,35117222;37,52141254;0,00000000;
22:52:19:693;-0,0095;0,1547;-0,0092;56,35117222;37,52141254;0,00000000;
22:52:19:694;-0,0095;0,1547;-0,0092;56,35117222;37,52141254;0,00000000;
22:52:19:694;-0,0095;0,1547;-0,0092;56,35117222;37,52141254;0,00000000;
22:52:19:752;-0,0095;0,1547;-0,0092;56,35117222;37,52141254;0,00000000;
22:52:19:753;-0,0347;0,1441;-0,0285;56,35117222;37,52141254;0,00000000;
22:52:19:770;-0,0347;0,1441;-0,0285;56,35117222;37,52141254;0,00000000;
22:52:19:771;-0,0347;0,1441;-0,0285;56,35117222;37,52141254;0,00000000;
22:52:19:772;-0,0347;0,1441;-0,0285;56,35117222;37,52141254;0,00000000;
22:52:19:773;-0,0347;0,1441;-0,0285;56,35117222;37,52141254;0,00000000;
22:52:19:784;-0,0347;0,1441;-0,0285;56,35117222;37,52141254;0,00000000;
22:52:19:786;-0,0312;0,1278;-0,0254;56,35117222;37,52141254;0,00000000;
22:52:19:844;-0,0312;0,1278;-0,0254;56,35117222;37,52141254;0,00000000;
22:52:19:845;-0,0256;0,0954;-0,0201;56,35117222;37,52141254;0,00000000;
22:52:19:847;-0,0256;0,0954;-0,0201;56,35117222;37,52141254;0,00000000;
22:52:19:849;-0,0256;0,0954;-0,0201;56,35117222;37,52141254;0,00000000;
22:52:19:850;-0,0256;0,0954;-0,0201;56,35117222;37,52141254;0,00000000;
22:52:19:902;-0,0256;0,0954;-0,0201;56,35117222;37,52141254;0,00000000;
22:52:19:904;0,0147;0,0496;0,0102;56,35117222;37,52141254;0,00000000;
22:52:19:909;0,0147;0,0496;0,0102;56,35117222;37,52141254;0,00000000;
22:52:19:910;0,0147;0,0496;0,0102;56,35117222;37,52141254;0,00000000;
22:52:19:911;0,0147;0,0496;0,0102;56,35117222;37,52141254;0,00000000;
22:52:19:964;0,0147;0,0496;0,0102;56,35117222;37,52141254;0,00000000;
22:52:19:967;0,0124;0,0419;0,0263;56,35117222;37,52141254;0,00000000;
22:52:19:988;0,0124;0,0419;0,0263;56,35117222;37,52141254;0,00000000;
22:52:19:989;0,0124;0,0419;0,0263;56,35117222;37,52141254;0,00000000;
22:52:19:991;0,0124;0,0419;0,0263;56,35117222;37,52141254;0,00000000;
22:52:19:995;0,0124;0,0419;0,0263;56,35117222;37,52141254;0,00000000;
22:52:20:043;0,0124;0,0419;0,0263;56,35117222;37,52141254;0,00000000;
22:52:20:044;-0,0171;0,0763;-0,0313;56,35117222;37,52141254;0,00000000;
22:52:20:065;-0,0171;0,0763;-0,0313;56,35117222;37,52141254;0,00000000;
22:52:20:066;-0,0171;0,0763;-0,0313;56,35117222;37,52141254;0,00000000;
22:52:20:067;-0,0171;0,0763;-0,0313;56,35117222;37,52141254;0,00000000;
22:52:20:069;-0,0171;0,0763;-0,0313;56,35117222;37,52141254;0,00000000;
22:52:20:124;-0,0171;0,0763;-0,0313;56,35117222;37,52141254;0,00000000;
22:52:20:126;-0,0305;0,0705;0,0029;56,35117222;37,52141254;0,00000000;
22:52:20:127;-0,0305;0,0705;0,0029;56,35117222;37,52141254;0,00000000;
22:52:20:128;-0,0305;0,0705;0,0029;56,35117222;37,52141254;0,00000000;
22:52:20:130;-0,0305;0,0705;0,0029;56,35117222;37,52141254;0,00000000;
22:52:20:185;-0,0305;0,0705;0,0029;56,35117222;37,52141254;0,00000000;
22:52:20:188;-0,0173;0,0355;-0,0063;56,35117222;37,52141254;0,00000000;
22:52:20:205;-0,0173;0,0355;-0,0063;56,35117222;37,52141254;0,00000000;
22:52:20:207;-0,0173;0,0355;-0,0063;56,35117222;37,52141254;0,00000000;
22:52:20:211;-0,0173;0,0355;-0,0063;56,35117222;37,52141254;0,00000000;
22:52:20:213;-0,0173;0,0355;-0,0063;56,35117222;37,52141254;0,00000000;
22:52:20:216;-0,0173;0,0355;-0,0063;56,35117222;37,52141254;0,00000000;
22:52:20:218;-0,0161;0,0303;-0,0057;56,35117222;37,52141254;0,00000000;
22:52:20:265;-0,0161;0,0303;-0,0057;56,35117222;37,52141254;0,00000000;
22:52:20:267;0,0211;0,0185;-0,0189;56,35117222;37,52141254;0,00000000;
22:52:20:282;0,0211;0,0185;-0,0189;56,35117222;37,52141254;0,00000000;
22:52:20:283;0,0211;0,0185;-0,0189;56,35117222;37,52141254;0,00000000;
22:52:20:285;0,0211;0,0185;-0,0189;56,35117222;37,52141254;0,00000000;
22:52:20:286;0,0211;0,0185;-0,0189;56,35117222;37,52141254;0,00000000;
22:52:20:343;0,0211;0,0185;-0,0189;56,35117222;37,52141254;0,00000000;
22:52:20:366;0,0211;0,0185;-0,0189;56,35117222;37,52141254;0,00000000;
22:52:20:369;0,0262;0,0474;-0,0116;56,35117222;37,52141254;0,00000000;
22:52:20:422;0,0262;0,0474;-0,0116;56,35117222;37,52141254;0,00000000;
22:52:20:424;-0,0109;0,0360;-0,0033;56,35117222;37,52141254;0,00000000;
22:52:20:428;-0,0109;0,0360;-0,0033;56,35117222;37,52141254;0,00000000;
22:52:20:431;-0,0109;0,0360;-0,0033;56,35117222;37,52141254;0,00000000;
22:52:20:433;-0,0109;0,0360;-0,0033;56,35117222;37,52141254;0,00000000;
22:52:20:438;-0,0109;0,0360;-0,0033;56,35117222;37,52141254;0,00000000;
22:52:20:440;-0,0109;0,0360;-0,0033;56,35117222;37,52141254;0,00000000;
22:52:20:442;-0,0109;0,0360;-0,0033;56,35117222;37,52141254;0,00000000;
22:52:20:477;-0,0109;0,0360;-0,0033;56,35117222;37,52141254;0,00000000;
22:52:20:479;-0,0307;0,0094;0,0080;56,35117222;37,52141254;0,00000000;
22:52:20:503;-0,0307;0,0094;0,0080;56,35117222;37,52141254;0,00000000;
22:52:20:505;-0,0307;0,0094;0,0080;56,35117222;37,52141254;0,00000000;
22:52:20:507;-0,0307;0,0094;0,0080;56,35117222;37,52141254;0,00000000;
22:52:20:511;-0,0307;0,0094;0,0080;56,35117222;37,52141254;0,00000000;
22:52:20:556;-0,0307;0,0094;0,0080;56,35117222;37,52141254;0,00000000;
22:52:20:557;-0,0373;-0,0567;0,4900;56,35117222;37,52141254;0,00000000;
22:52:20:558;-0,0373;-0,0567;0,4900;56,35117222;37,52141254;0,00000000;
22:52:20:559;-0,0373;-0,0567;0,4900;56,35117222;37,52141254;0,00000000;
22:52:20:560;-0,0373;-0,0567;0,4900;56,35117222;37,52141254;0,00000000;
22:52:20:618;-0,0373;-0,0567;0,4900;56,35117222;37,52141254;0,00000000;
22:52:20:620;0,3781;0,1635;-0,7532;56,35117222;37,52141254;0,00000000;
22:52:20:638;0,3841;0,2951;0,6249;56,35117222;37,52141254;0,00000000;
22:52:20:640;0,3841;0,2951;0,6249;56,35117222;37,52141254;0,00000000;
22:52:20:642;0,3841;0,2951;0,6249;56,35117222;37,52141254;0,00000000;
22:52:20:644;0,3841;0,2951;0,6249;56,35117222;37,52141254;0,00000000;
22:52:20:646;0,3841;0,2951;0,6249;56,35117222;37,52141254;0,00000000;
22:52:20:647;0,3841;0,2951;0,6249;56,35117222;37,52141254;0,00000000;
22:52:20:699;0,3841;0,2951;0,6249;56,35117222;37,52141254;0,00000000;
22:52:20:700;0,4401;0,0004;-0,6638;56,35115467;37,52141260;0,00000000;
22:52:20:714;0,4401;0,0004;-0,6638;56,35115467;37,52141260;0,00000000;
22:52:20:716;0,4401;0,0004;-0,6638;56,35115467;37,52141260;0,00000000;
22:52:20:718;0,4401;0,0004;-0,6638;56,35115467;37,52141260;0,00000000;
22:52:20:768;0,4401;0,0004;-0,6638;56,35115467;37,52141260;0,00000000;
22:52:20:769;-1,0195;-0,3227;0,1840;56,35115467;37,52141260;0,00000000;
22:52:20:774;-1,0195;-0,3227;0,1840;56,35115467;37,52141260;0,00000000;
22:52:20:776;-1,0195;-0,3227;0,1840;56,35115467;37,52141260;0,00000000;
22:52:20:777;-1,0195;-0,3227;0,1840;56,35115467;37,52141260;0,00000000;
22:52:20:821;-1,0195;-0,3227;0,1840;56,35115467;37,52141260;0,00000000;
22:52:20:823;-0,6639;0,2345;0,3178;56,35115467;37,52141260;0,00000000;
22:52:20:853;-0,6639;0,2345;0,3178;56,35115467;37,52141260;0,00000000;
22:52:20:855;-0,6639;0,2345;0,3178;56,35115467;37,52141260;0,00000000;
22:52:20:857;-0,6639;0,2345;0,3178;56,35115467;37,52141260;0,00000000;
22:52:20:860;-0,6639;0,2345;0,3178;56,35115467;37,52141260;0,00000000;
22:52:20:907;-0,6639;0,2345;0,3178;56,35115467;37,52141260;0,00000000;
22:52:20:918;0,3936;-0,2924;-0,5324;56,35115467;37,52141260;0,00000000;
22:52:20:933;0,3936;-0,2924;-0,5324;56,35115467;37,52141260;0,00000000;
22:52:20:936;0,3936;-0,2924;-0,5324;56,35115467;37,52141260;0,00000000;
22:52:20:937;0,3936;-0,2924;-0,5324;56,35115467;37,52141260;0,00000000;
22:52:20:939;0,3936;-0,2924;-0,5324;56,35115467;37,52141260;0,00000000;
22:52:20:940;0,3936;-0,2924;-0,5324;56,35115467;37,52141260;0,00000000;
22:52:20:941;0,2713;-0,1527;-0,5058;56,35115467;37,52141260;0,00000000;
22:52:20:989;0,2713;-0,1527;-0,5058;56,35115467;37,52141260;0,00000000;
22:52:20:991;-0,5262;0,4022;-0,0791;56,35115467;37,52141260;0,00000000;
22:52:20:993;-0,5262;0,4022;-0,0791;56,35115467;37,52141260;0,00000000;
22:52:20:994;-0,5262;0,4022;-0,0791;56,35115467;37,52141260;0,00000000;
22:52:20:996;-0,5262;0,4022;-0,0791;56,35115467;37,52141260;0,00000000;
22:52:21:049;-0,5262;0,4022;-0,0791;56,35115467;37,52141260;0,00000000;
22:52:21:050;-0,7351;0,2323;-0,1266;56,35115467;37,52141260;0,00000000;
22:52:21:068;-0,7351;0,2323;-0,1266;56,35115467;37,52141260;0,00000000;
22:52:21:069;-0,7351;0,2323;-0,1266;56,35115467;37,52141260;0,00000000;
22:52:21:070;-0,7351;0,2323;-0,1266;56,35115467;37,52141260;0,00000000;
22:52:21:071;-0,7351;0,2323;-0,1266;56,35115467;37,52141260;0,00000000;
22:52:21:141;-0,7351;0,2323;-0,1266;56,35115467;37,52141260;0,00000000;
22:52:21:143;0,6064;1,9149;-0,0554;56,35115467;37,52141260;0,00000000;
22:52:21:146;0,6064;1,9149;-0,0554;56,35115467;37,52141260;0,00000000;
22:52:21:147;0,6064;1,9149;-0,0554;56,35115467;37,52141260;0,00000000;
22:52:21:149;0,6064;1,9149;-0,0554;56,35115467;37,52141260;0,00000000;
22:52:21:150;0,6064;1,9149;-0,0554;56,35115467;37,52141260;0,00000000;
22:52:21:201;0,6064;1,9149;-0,0554;56,35115467;37,52141260;0,00000000;
22:52:21:204;-0,7727;-1,3109;0,5386;56,35115467;37,52141260;0,00000000;
22:52:21:209;-0,7727;-1,3109;0,5386;56,35115467;37,52141260;0,00000000;
22:52:21:212;-0,7727;-1,3109;0,5386;56,35115467;37,52141260;0,00000000;
22:52:21:214;-0,7727;-1,3109;0,5386;56,35115467;37,52141260;0,00000000;
22:52:21:260;-0,7727;-1,3109;0,5386;56,35115467;37,52141260;0,00000000;
22:52:21:262;0,2449;0,5385;-0,0691;56,35115467;37,52141260;0,00000000;
22:52:21:287;0,2449;0,5385;-0,0691;56,35115467;37,52141260;0,00000000;
22:52:21:289;0,2449;0,5385;-0,0691;56,35115467;37,52141260;0,00000000;
22:52:21:291;0,2449;0,5385;-0,0691;56,35115467;37,52141260;0,00000000;
22:52:21:296;0,2449;0,5385;-0,0691;56,35115467;37,52141260;0,00000000;
22:52:21:340;0,2449;0,5385;-0,0691;56,35115467;37,52141260;0,00000000;
22:52:21:342;0,0365;-0,5878;0,0524;56,35115467;37,52141260;0,00000000;
22:52:21:364;0,0365;-0,5878;0,0524;56,35115467;37,52141260;0,00000000;
22:52:21:368;0,0365;-0,5878;0,0524;56,35115467;37,52141260;0,00000000;
22:52:21:370;0,0365;-0,5878;0,0524;56,35115467;37,52141260;0,00000000;
22:52:21:372;0,0365;-0,5878;0,0524;56,35115467;37,52141260;0,00000000;
22:52:21:374;0,0365;-0,5878;0,0524;56,35115467;37,52141260;0,00000000;
22:52:21:377;0,0148;-0,8887;0,0702;56,35115467;37,52141260;0,00000000;
22:52:21:422;0,0148;-0,8887;0,0702;56,35115467;37,52141260;0,00000000;
22:52:21:425;-0,0012;-0,0185;0,0786;56,35115467;37,52141260;0,00000000;
22:52:21:428;-0,0012;-0,0185;0,0786;56,35115467;37,52141260;0,00000000;
22:52:21:430;-0,0012;-0,0185;0,0786;56,35115467;37,52141260;0,00000000;
22:52:21:432;-0,0012;-0,0185;0,0786;56,35115467;37,52141260;0,00000000;
22:52:21:483;-0,0012;-0,0185;0,0786;56,35115467;37,52141260;0,00000000;
22:52:21:485;-0,0253;0,0375;0,0591;56,35115467;37,52141260;0,00000000;
22:52:21:503;-0,0253;0,0375;0,0591;56,35115467;37,52141260;0,00000000;
22:52:21:506;-0,0253;0,0375;0,0591;56,35115467;37,52141260;0,00000000;
22:52:21:507;-0,0253;0,0375;0,0591;56,35115467;37,52141260;0,00000000;
22:52:21:509;-0,0253;0,0375;0,0591;56,35115467;37,52141260;0,00000000;
22:52:21:562;-0,0253;0,0375;0,0591;56,35115467;37,52141260;0,00000000;
22:52:21:564;-0,0464;0,0300;0,0213;56,35115467;37,52141260;0,00000000;
22:52:21:580;-0,0464;0,0300;0,0213;56,35115467;37,52141260;0,00000000;
22:52:21:583;-0,0464;0,0300;0,0213;56,35115467;37,52141260;0,00000000;
22:52:21:585;-0,0464;0,0300;0,0213;56,35115467;37,52141260;0,00000000;
22:52:21:601;-0,0177;0,0074;0,0248;56,35115467;37,52141260;0,00000000;
22:52:21:604;-0,0177;0,0074;0,0248;56,35115467;37,52141260;0,00000000;
22:52:21:641;-0,0177;0,0074;0,0248;56,35115467;37,52141260;0,00000000;
22:52:21:643;-0,0177;0,0074;0,0248;56,35115467;37,52141260;0,00000000;
22:52:21:663;-0,0177;0,0074;0,0248;56,35115467;37,52141260;0,00000000;
22:52:21:666;-0,0012;0,0078;0,0850;56,35115467;37,52141260;0,00000000;
22:52:21:718;-0,0012;0,0078;0,0850;56,35115467;37,52141260;0,00000000;
22:52:21:719;-0,0015;0,0061;0,0754;56,35114289;37,52140827;0,00000000;
22:52:21:721;-0,0015;0,0061;0,0754;56,35114289;37,52140827;0,00000000;
22:52:21:723;-0,0015;0,0061;0,0754;56,35114289;37,52140827;0,00000000;
22:52:21:725;-0,0015;0,0061;0,0754;56,35114289;37,52140827;0,00000000;
22:52:21:726;-0,0015;0,0061;0,0754;56,35114289;37,52140827;0,00000000;
22:52:21:728;-0,0015;0,0061;0,0754;56,35114289;37,52140827;0,00000000;
22:52:21:773;-0,0015;0,0061;0,0754;56,35114289;37,52140827;0,00000000;
22:52:21:776;-0,0100;0,0046;0,0498;56,35114289;37,52140827;0,00000000;
22:52:21:797;-0,0100;0,0046;0,0498;56,35114289;37,52140827;0,00000000;
22:52:21:799;-0,0100;0,0046;0,0498;56,35114289;37,52140827;0,00000000;
22:52:21:801;-0,0100;0,0046;0,0498;56,35114289;37,52140827;0,00000000;
22:52:21:803;-0,0100;0,0046;0,0498;56,35114289;37,52140827;0,00000000;
22:52:21:856;-0,0100;0,0046;0,0498;56,35114289;37,52140827;0,00000000;
22:52:21:858;-0,0322;0,0150;-0,0063;56,35114289;37,52140827;0,00000000;
22:52:21:860;-0,0322;0,0150;-0,0063;56,35114289;37,52140827;0,00000000;
22:52:21:862;-0,0322;0,0150;-0,0063;56,35114289;37,52140827;0,00000000;
22:52:21:863;-0,0322;0,0150;-0,0063;56,35114289;37,52140827;0,00000000;
22:52:21:913;-0,0322;0,0150;-0,0063;56,35114289;37,52140827;0,00000000;
22:52:21:916;-0,0121;-0,0073;0,0421;56,35114289;37,52140827;0,00000000;
22:52:21:937;-0,0121;-0,0073;0,0421;56,35114289;37,52140827;0,00000000;
22:52:21:939;-0,0121;-0,0073;0,0421;56,35114289;37,52140827;0,00000000;
22:52:21:941;-0,0121;-0,0073;0,0421;56,35114289;37,52140827;0,00000000;
22:52:21:945;-0,0121;-0,0073;0,0421;56,35114289;37,52140827;0,00000000;
22:52:21:996;-0,0121;-0,0073;0,0421;56,35114289;37,52140827;0,00000000;
22:52:21:998;0,0105;-0,0016;0,0649;56,35114289;37,52140827;0,00000000;
22:52:22:016;0,0105;-0,0016;0,0649;56,35114289;37,52140827;0,00000000;
22:52:22:018;0,0105;-0,0016;0,0649;56,35114289;37,52140827;0,00000000;
22:52:22:020;0,0105;-0,0016;0,0649;56,35114289;37,52140827;0,00000000;
22:52:22:022;0,0105;-0,0016;0,0649;56,35114289;37,52140827;0,00000000;
22:52:22:065;0,0105;-0,0016;0,0649;56,35114289;37,52140827;0,00000000;
22:52:22:068;-0,0020;0,0114;-0,0005;56,35114289;37,52140827;0,00000000;
22:52:22:071;-0,0020;0,0114;-0,0005;56,35114289;37,52140827;0,00000000;
22:52:22:073;-0,0020;0,0114;-0,0005;56,35114289;37,52140827;0,00000000;
22:52:22:075;-0,0020;0,0114;-0,0005;56,35114289;37,52140827;0,00000000;
22:52:22:117;-0,0020;0,0114;-0,0005;56,35114289;37,52140827;0,00000000;
22:52:22:120;-0,0381;0,0171;-0,0365;56,35114289;37,52140827;0,00000000;
22:52:22:150;-0,0381;0,0171;-0,0365;56,35114289;37,52140827;0,00000000;
22:52:22:152;-0,0224;-0,0050;0,0241;56,35114289;37,52140827;0,00000000;
22:52:22:154;-0,0224;-0,0050;0,0241;56,35114289;37,52140827;0,00000000;
22:52:22:156;-0,0224;-0,0050;0,0241;56,35114289;37,52140827;0,00000000;
22:52:22:158;-0,0224;-0,0050;0,0241;56,35114289;37,52140827;0,00000000;
22:52:22:160;-0,0224;-0,0050;0,0241;56,35114289;37,52140827;0,00000000;
22:52:22:205;-0,0224;-0,0050;0,0241;56,35114289;37,52140827;0,00000000;
22:52:22:207;-0,0076;-0,0188;0,0635;56,35114289;37,52140827;0,00000000;
22:52:22:229;-0,0076;-0,0188;0,0635;56,35114289;37,52140827;0,00000000;
22:52:22:231;-0,0076;-0,0188;0,0635;56,35114289;37,52140827;0,00000000;
22:52:22:234;-0,0076;-0,0188;0,0635;56,35114289;37,52140827;0,00000000;
22:52:22:236;-0,0076;-0,0188;0,0635;56,35114289;37,52140827;0,00000000;
22:52:22:286;-0,0076;-0,0188;0,0635;56,35114289;37,52140827;0,00000000;
22:52:22:288;0,0094;0,0044;0,0209;56,35114289;37,52140827;0,00000000;
22:52:22:291;0,0094;0,0044;0,0209;56,35114289;37,52140827;0,00000000;
22:52:22:293;0,0094;0,0044;0,0209;56,35114289;37,52140827;0,00000000;
22:52:22:295;0,0094;0,0044;0,0209;56,35114289;37,52140827;0,00000000;
22:52:22:347;-0,0250;0,0130;-0,0182;56,35114289;37,52140827;0,00000000;
22:52:22:350;-0,0250;0,0130;-0,0182;56,35114289;37,52140827;0,00000000;
22:52:22:371;-0,0250;0,0130;-0,0182;56,35114289;37,52140827;0,00000000;
22:52:22:374;-0,0250;0,0130;-0,0182;56,35114289;37,52140827;0,00000000;
22:52:22:377;-0,0250;0,0130;-0,0182;56,35114289;37,52140827;0,00000000;
22:52:22:379;-0,0250;0,0130;-0,0182;56,35114289;37,52140827;0,00000000;
22:52:22:381;-0,0250;0,0130;-0,0182;56,35114289;37,52140827;0,00000000;
22:52:22:383;-0,0224;0,0107;-0,0163;56,35114289;37,52140827;0,00000000;
22:52:22:437;-0,0224;0,0107;-0,0163;56,35114289;37,52140827;0,00000000;
22:52:22:439;-0,0046;-0,0125;-0,0208;56,35114289;37,52140827;0,00000000;
22:52:22:442;-0,0046;-0,0125;-0,0208;56,35114289;37,52140827;0,00000000;
22:52:22:444;-0,0046;-0,0125;-0,0208;56,35114289;37,52140827;0,00000000;
22:52:22:445;-0,0046;-0,0125;-0,0208;56,35114289;37,52140827;0,00000000;
22:52:22:498;-0,0046;-0,0125;-0,0208;56,35114289;37,52140827;0,00000000;
22:52:22:500;0,0031;-0,0251;0,0462;56,35114289;37,52140827;0,00000000;
22:52:22:503;0,0031;-0,0251;0,0462;56,35114289;37,52140827;0,00000000;
22:52:22:505;0,0031;-0,0251;0,0462;56,35114289;37,52140827;0,00000000;
22:52:22:507;0,0031;-0,0251;0,0462;56,35114289;37,52140827;0,00000000;
22:52:22:558;0,0031;-0,0251;0,0462;56,35114289;37,52140827;0,00000000;
22:52:22:561;0,0060;-0,0069;0,0271;56,35114289;37,52140827;0,00000000;
22:52:22:581;0,0060;-0,0069;0,0271;56,35114289;37,52140827;0,00000000;
22:52:22:583;0,0060;-0,0069;0,0271;56,35114289;37,52140827;0,00000000;
22:52:22:587;0,0060;-0,0069;0,0271;56,35114289;37,52140827;0,00000000;
22:52:22:589;0,0060;-0,0069;0,0271;56,35114289;37,52140827;0,00000000;
22:52:22:636;0,0060;-0,0069;0,0271;56,35114289;37,52140827;0,00000000;
22:52:22:639;-0,0351;-0,0023;-0,0235;56,35114289;37,52140827;0,00000000;
22:52:22:658;-0,0351;-0,0023;-0,0235;56,35114289;37,52140827;0,00000000;
22:52:22:662;-0,0351;-0,0023;-0,0235;56,35114289;37,52140827;0,00000000;
22:52:22:663;-0,0351;-0,0023;-0,0235;56,35114289;37,52140827;0,00000000;
22:52:22:665;-0,0351;-0,0023;-0,0235;56,35114289;37,52140827;0,00000000;
22:52:22:719;-0,0351;-0,0023;-0,0235;56,35114289;37,52140827;0,00000000;
22:52:22:722;0,0151;-0,0212;0,0364;56,35111573;37,52142496;0,00000000;
22:52:22:725;0,0151;-0,0212;0,0364;56,35111573;37,52142496;0,00000000;
22:52:22:727;0,0151;-0,0212;0,0364;56,35111573;37,52142496;0,00000000;
22:52:22:729;0,0151;-0,0212;0,0364;56,35111573;37,52142496;0,00000000;
22:52:22:779;0,0151;-0,0212;0,0364;56,35111573;37,52142496;0,00000000;
22:52:22:781;0,0203;-0,0106;0,0438;56,35111573;37,52142496;0,00000000;
22:52:22:803;0,0178;-0,0105;0,0387;56,35111573;37,52142496;0,00000000;
22:52:22:806;0,0178;-0,0105;0,0387;56,35111573;37,52142496;0,00000000;
22:52:22:808;0,0178;-0,0105;0,0387;56,35111573;37,52142496;0,00000000;
22:52:22:809;0,0178;-0,0105;0,0387;56,35111573;37,52142496;0,00000000;
22:52:22:811;0,0178;-0,0105;0,0387;56,35111573;37,52142496;0,00000000;
22:52:22:813;0,0178;-0,0105;0,0387;56,35111573;37,52142496;0,00000000;
22:52:22:859;0,0178;-0,0105;0,0387;56,35111573;37,52142496;0,00000000;
22:52:22:862;-0,0093;0,0101;-0,0048;56,35111573;37,52142496;0,00000000;
22:52:22:876;-0,0093;0,0101;-0,0048;56,35111573;37,52142496;0,00000000;
22:52:22:879;-0,0093;0,0101;-0,0048;56,35111573;37,52142496;0,00000000;
22:52:22:881;-0,0093;0,0101;-0,0048;56,35111573;37,52142496;0,00000000;
22:52:22:883;-0,0093;0,0101;-0,0048;56,35111573;37,52142496;0,00000000;
22:52:22:936;-0,0093;0,0101;-0,0048;56,35111573;37,52142496;0,00000000;
22:52:22:961;-0,0093;0,0101;-0,0048;56,35111573;37,52142496;0,00000000;
22:52:22:964;-0,0140;-0,0280;0,0087;56,35111573;37,52142496;0,00000000;
22:52:23:014;-0,0140;-0,0280;0,0087;56,35111573;37,52142496;0,00000000;
22:52:23:017;0,0120;-0,0117;0,0363;56,35111573;37,52142496;0,00000000;
22:52:23:019;0,0120;-0,0117;0,0363;56,35111573;37,52142496;0,00000000;
22:52:23:020;0,0120;-0,0117;0,0363;56,35111573;37,52142496;0,00000000;
22:52:23:021;0,0120;-0,0117;0,0363;56,35111573;37,52142496;0,00000000;
22:52:23:022;0,0120;-0,0117;0,0363;56,35111573;37,52142496;0,00000000;
22:52:23:023;0,0120;-0,0117;0,0363;56,35111573;37,52142496;0,00000000;
22:52:23:024;0,0120;-0,0117;0,0363;56,35111573;37,52142496;0,00000000;
22:52:23:069;0,0120;-0,0117;0,0363;56,35111573;37,52142496;0,00000000;
22:52:23:071;-0,0221;0,0081;0,0076;56,35111573;37,52142496;0,00000000;
22:52:23:092;-0,0221;0,0081;0,0076;56,35111573;37,52142496;0,00000000;
22:52:23:095;-0,0221;0,0081;0,0076;56,35111573;37,52142496;0,00000000;
22:52:23:097;-0,0221;0,0081;0,0076;56,35111573;37,52142496;0,00000000;
22:52:23:098;-0,0221;0,0081;0,0076;56,35111573;37,52142496;0,00000000;
22:52:23:151;-0,0221;0,0081;0,0076;56,35111573;37,52142496;0,00000000;
22:52:23:153;-0,0180;0,0074;-0,0498;56,35111573;37,52142496;0,00000000;
22:52:23:156;-0,0180;0,0074;-0,0498;56,35111573;37,52142496;0,00000000;
22:52:23:159;-0,0180;0,0074;-0,0498;56,35111573;37,52142496;0,00000000;
22:52:23:161;-0,0180;0,0074;-0,0498;56,35111573;37,52142496;0,00000000;
22:52:23:211;-0,0180;0,0074;-0,0498;56,35111573;37,52142496;0,00000000;
22:52:23:213;0,0023;-0,0242;-0,0246;56,35111573;37,52142496;0,00000000;
22:52:23:230;0,0023;-0,0242;-0,0246;56,35111573;37,52142496;0,00000000;
22:52:23:236;0,0099;-0,0180;0,0450;56,35111573;37,52142496;0,00000000;
22:52:23:238;0,0099;-0,0180;0,0450;56,35111573;37,52142496;0,00000000;
22:52:23:240;0,0099;-0,0180;0,0450;56,35111573;37,52142496;0,00000000;
22:52:23:242;0,0099;-0,0180;0,0450;56,35111573;37,52142496;0,00000000;
22:52:23:243;0,0099;-0,0180;0,0450;56,35111573;37,52142496;0,00000000;
22:52:23:292;0,0099;-0,0180;0,0450;56,35111573;37,52142496;0,00000000;
22:52:23:294;-0,0051;-0,0065;0,0170;56,35111573;37,52142496;0,00000000;
22:52:23:309;-0,0051;-0,0065;0,0170;56,35111573;37,52142496;0,00000000;
22:52:23:310;-0,0051;-0,0065;0,0170;56,35111573;37,52142496;0,00000000;
22:52:23:312;-0,0051;-0,0065;0,0170;56,35111573;37,52142496;0,00000000;
22:52:23:362;-0,0051;-0,0065;0,0170;56,35111573;37,52142496;0,00000000;
22:52:23:364;-0,0320;0,0053;-0,0497;56,35111573;37,52142496;0,00000000;
22:52:23:368;-0,0320;0,0053;-0,0497;56,35111573;37,52142496;0,00000000;
22:52:23:370;-0,0320;0,0053;-0,0497;56,35111573;37,52142496;0,00000000;
22:52:23:371;-0,0320;0,0053;-0,0497;56,35111573;37,52142496;0,00000000;
22:52:23:414;-0,0320;0,0053;-0,0497;56,35111573;37,52142496;0,00000000;
22:52:23:417;-0,0137;-0,0214;-0,0348;56,35111573;37,52142496;0,00000000;
22:52:23:447;-0,0137;-0,0214;-0,0348;56,35111573;37,52142496;0,00000000;
22:52:23:449;-0,0137;-0,0214;-0,0348;56,35111573;37,52142496;0,00000000;
22:52:23:450;-0,0137;-0,0214;-0,0348;56,35111573;37,52142496;0,00000000;
22:52:23:452;-0,0137;-0,0214;-0,0348;56,35111573;37,52142496;0,00000000;
22:52:23:502;-0,0137;-0,0214;-0,0348;56,35111573;37,52142496;0,00000000;
22:52:23:505;0,0149;-0,0196;0,0392;56,35111573;37,52142496;0,00000000;
22:52:23:524;0,0149;-0,0196;0,0392;56,35111573;37,52142496;0,00000000;
22:52:23:527;0,0129;-0,0184;0,0347;56,35111573;37,52142496;0,00000000;
22:52:23:531;0,0129;-0,0184;0,0347;56,35111573;37,52142496;0,00000000;
22:52:23:533;0,0129;-0,0184;0,0347;56,35111573;37,52142496;0,00000000;
22:52:23:535;0,0129;-0,0184;0,0347;56,35111573;37,52142496;0,00000000;
22:52:23:537;0,0129;-0,0184;0,0347;56,35111573;37,52142496;0,00000000;
22:52:23:583;0,0129;-0,0184;0,0347;56,35111573;37,52142496;0,00000000;
22:52:23:586;0,0049;-0,0051;0,0335;56,35111573;37,52142496;0,00000000;
22:52:23:589;0,0049;-0,0051;0,0335;56,35111573;37,52142496;0,00000000;
22:52:23:591;0,0049;-0,0051;0,0335;56,35111573;37,52142496;0,00000000;
22:52:23:593;0,0049;-0,0051;0,0335;56,35111573;37,52142496;0,00000000;
22:52:23:644;0,0049;-0,0051;0,0335;56,35111573;37,52142496;0,00000000;
22:52:23:647;-0,0354;0,0039;-0,0474;56,35111573;37,52142496;0,00000000;
22:52:23:664;-0,0354;0,0039;-0,0474;56,35111573;37,52142496;0,00000000;
22:52:23:665;-0,0354;0,0039;-0,0474;56,35111573;37,52142496;0,00000000;
22:52:23:668;-0,0354;0,0039;-0,0474;56,35111573;37,52142496;0,00000000;
22:52:23:670;-0,0354;0,0039;-0,0474;56,35111573;37,52142496;0,00000000;
22:52:23:734;-0,0354;0,0039;-0,0474;56,35111573;37,52142496;0,00000000;
22:52:23:736;0,0148;-0,0156;0,0176;56,35107937;37,52142201;0,00000000;
22:52:23:741;0,0148;-0,0156;0,0176;56,35107937;37,52142201;0,00000000;
22:52:23:745;0,0148;-0,0156;0,0176;56,35107937;37,52142201;0,00000000;
22:52:23:747;0,0148;-0,0156;0,0176;56,35107937;37,52142201;0,00000000;
22:52:23:749;0,0148;-0,0156;0,0176;56,35107937;37,52142201;0,00000000;
22:52:23:793;0,0148;-0,0156;0,0176;56,35107937;37,52142201;0,00000000;
22:52:23:795;-0,0041;-0,0138;0,0375;56,35107937;37,52142201;0,00000000;
22:52:23:798;-0,0041;-0,0138;0,0375;56,35107937;37,52142201;0,00000000;
22:52:23:800;-0,0041;-0,0138;0,0375;56,35107937;37,52142201;0,00000000;
22:52:23:801;-0,0041;-0,0138;0,0375;56,35107937;37,52142201;0,00000000;
22:52:23:853;-0,0041;-0,0138;0,0375;56,35107937;37,52142201;0,00000000;
22:52:23:855;-0,0323;0,0024;-0,0300;56,35107937;37,52142201;0,00000000;
22:52:23:879;-0,0323;0,0024;-0,0300;56,35107937;37,52142201;0,00000000;
22:52:23:882;-0,0323;0,0024;-0,0300;56,35107937;37,52142201;0,00000000;
22:52:23:885;-0,0323;0,0024;-0,0300;56,35107937;37,52142201;0,00000000;
22:52:23:887;-0,0323;0,0024;-0,0300;56,35107937;37,52142201;0,00000000;
22:52:23:933;-0,0323;0,0024;-0,0300;56,35107937;37,52142201;0,00000000;
22:52:23:935;-0,0100;-0,0124;-0,0652;56,35107937;37,52142201;0,00000000;
22:52:23:956;-0,0100;-0,0124;-0,0652;56,35107937;37,52142201;0,00000000;
22:52:23:957;-0,0100;-0,0124;-0,0652;56,35107937;37,52142201;0,00000000;
22:52:23:959;-0,0100;-0,0124;-0,0652;56,35107937;37,52142201;0,00000000;
22:52:23:960;-0,0100;-0,0124;-0,0652;56,35107937;37,52142201;0,00000000;
22:52:23:962;-0,0100;-0,0124;-0,0652;56,35107937;37,52142201;0,00000000;
22:52:23:964;0,0022;-0,0165;0,0164;56,35107937;37,52142201;0,00000000;
22:52:24:014;0,0022;-0,0165;0,0164;56,35107937;37,52142201;0,00000000;
22:52:24:016;0,0146;-0,0079;0,0481;56,35107937;37,52142201;0,00000000;
22:52:24:018;0,0146;-0,0079;0,0481;56,35107937;37,52142201;0,00000000;
22:52:24:019;0,0146;-0,0079;0,0481;56,35107937;37,52142201;0,00000000;
22:52:24:020;0,0146;-0,0079;0,0481;56,35107937;37,52142201;0,00000000;
22:52:24:075;0,0146;-0,0079;0,0481;56,35107937;37,52142201;0,00000000;
22:52:24:077;-0,0303;-0,0088;-0,0134;56,35107937;37,52142201;0,00000000;
22:52:24:093;-0,0303;-0,0088;-0,0134;56,35107937;37,52142201;0,00000000;
22:52:24:095;-0,0303;-0,0088;-0,0134;56,35107937;37,52142201;0,00000000;
22:52:24:097;-0,0303;-0,0088;-0,0134;56,35107937;37,52142201;0,00000000;
22:52:24:098;-0,0303;-0,0088;-0,0134;56,35107937;37,52142201;0,00000000;
22:52:24:156;-0,0303;-0,0088;-0,0134;56,35107937;37,52142201;0,00000000;
22:52:24:158;-0,0072;-0,0181;-0,0734;56,35107937;37,52142201;0,00000000;
22:52:24:172;-0,0072;-0,0181;-0,0734;56,35107937;37,52142201;0,00000000;
22:52:24:174;-0,0072;-0,0181;-0,0734;56,35107937;37,52142201;0,00000000;
22:52:24:176;-0,0072;-0,0181;-0,0734;56,35107937;37,52142201;0,00000000;
22:52:24:195;-0,0072;-0,0181;-0,0734;56,35107937;37,52142201;0,00000000;
22:52:24:198;0,0157;-0,0109;0,0276;56,35107937;37,52142201;0,00000000;
22:52:24:233;0,0157;-0,0109;0,0276;56,35107937;37,52142201;0,00000000;
22:52:24:236;0,0157;-0,0109;0,0276;56,35107937;37,52142201;0,00000000;
22:52:24:257;0,0157;-0,0109;0,0276;56,35107937;37,52142201;0,00000000;
22:52:24:259;0,0078;0,0030;0,0484;56,35107937;37,52142201;0,00000000;
22:52:24:311;0,0078;0,0030;0,0484;56,35107937;37,52142201;0,00000000;
22:52:24:314;0,0078;0,0030;0,0484;56,35107937;37,52142201;0,00000000;
22:52:24:316;0,0078;0,0030;0,0484;56,35107937;37,52142201;0,00000000;
22:52:24:317;0,0078;0,0030;0,0484;56,35107937;37,52142201;0,00000000;
22:52:24:319;0,0078;0,0030;0,0484;56,35107937;37,52142201;0,00000000;
22:52:24:320;0,0078;0,0030;0,0484;56,35107937;37,52142201;0,00000000;
22:52:24:321;0,0071;0,0016;0,0428;56,35107937;37,52142201;0,00000000;
22:52:24:367;0,0071;0,0016;0,0428;56,35107937;37,52142201;0,00000000;
22:52:24:369;-0,0329;0,0029;-0,0345;56,35107937;37,52142201;0,00000000;
22:52:24:391;-0,0329;0,0029;-0,0345;56,35107937;37,52142201;0,00000000;
22:52:24:394;-0,0329;0,0029;-0,0345;56,35107937;37,52142201;0,00000000;
22:52:24:396;-0,0329;0,0029;-0,0345;56,35107937;37,52142201;0,00000000;
22:52:24:398;-0,0329;0,0029;-0,0345;56,35107937;37,52142201;0,00000000;
22:52:24:448;-0,0329;0,0029;-0,0345;56,35107937;37,52142201;0,00000000;
22:52:24:451;0,0201;-0,0138;0,0010;56,35107937;37,52142201;0,00000000;
22:52:24:453;0,0201;-0,0138;0,0010;56,35107937;37,52142201;0,00000000;
22:52:24:455;0,0201;-0,0138;0,0010;56,35107937;37,52142201;0,00000000;
22:52:24:456;0,0201;-0,0138;0,0010;56,35107937;37,52142201;0,00000000;
22:52:24:508;0,0201;-0,0138;0,0010;56,35107937;37,52142201;0,00000000;
22:52:24:511;-0,0061;-0,0105;0,0333;56,35107937;37,52142201;0,00000000;
22:52:24:527;-0,0061;-0,0105;0,0333;56,35107937;37,52142201;0,00000000;
22:52:24:530;-0,0061;-0,0105;0,0333;56,35107937;37,52142201;0,00000000;
22:52:24:532;-0,0061;-0,0105;0,0333;56,35107937;37,52142201;0,00000000;
22:52:24:535;-0,0061;-0,0105;0,0333;56,35107937;37,52142201;0,00000000;
22:52:24:588;-0,0061;-0,0105;0,0333;56,35107937;37,52142201;0,00000000;
22:52:24:590;-0,0349;0,0007;-0,0114;56,35107937;37,52142201;0,00000000;
22:52:24:606;-0,0349;0,0007;-0,0114;56,35107937;37,52142201;0,00000000;
22:52:24:608;-0,0349;0,0007;-0,0114;56,35107937;37,52142201;0,00000000;
22:52:24:611;-0,0349;0,0007;-0,0114;56,35107937;37,52142201;0,00000000;
22:52:24:613;-0,0349;0,0007;-0,0114;56,35107937;37,52142201;0,00000000;
22:52:24:658;-0,0349;0,0007;-0,0114;56,35107937;37,52142201;0,00000000;
22:52:24:660;-0,0090;-0,0118;-0,0638;56,35107937;37,52142201;0,00000000;
22:52:24:665;-0,0090;-0,0118;-0,0638;56,35107937;37,52142201;0,00000000;
22:52:24:668;-0,0090;-0,0118;-0,0638;56,35107937;37,52142201;0,00000000;
22:52:24:669;-0,0090;-0,0118;-0,0638;56,35107937;37,52142201;0,00000000;
22:52:24:710;-0,0090;-0,0118;-0,0638;56,35107937;37,52142201;0,00000000;
22:52:24:712;0,0201;-0,0122;-0,0100;56,35107937;37,52142201;0,00000000;
22:52:24:741;0,0201;-0,0122;-0,0100;56,35107937;37,52142201;0,00000000;
22:52:24:744;0,0127;-0,0207;0,0420;56,35107937;37,52142201;0,00000000;
22:52:24:749;0,0127;-0,0207;0,0420;56,35107937;37,52142201;0,00000000;
22:52:24:751;0,0127;-0,0207;0,0420;56,35107937;37,52142201;0,00000000;
22:52:24:753;0,0127;-0,0207;0,0420;56,35107937;37,52142201;0,00000000;
22:52:24:754;0,0127;-0,0207;0,0420;56,35107937;37,52142201;0,00000000;
22:52:24:800;0,0127;-0,0207;0,0420;56,35107937;37,52142201;0,00000000;
22:52:24:802;-0,0220;-0,0014;-0,0090;56,35107937;37,52142201;0,00000000;
22:52:24:823;-0,0220;-0,0014;-0,0090;56,35107937;37,52142201;0,00000000;
22:52:24:826;-0,0220;-0,0014;-0,0090;56,35107937;37,52142201;0,00000000;
22:52:24:829;-0,0220;-0,0014;-0,0090;56,35107937;37,52142201;0,00000000;
22:52:24:832;-0,0220;-0,0014;-0,0090;56,35107937;37,52142201;0,00000000;
22:52:24:878;-0,0220;-0,0014;-0,0090;56,35107937;37,52142201;0,00000000;
22:52:24:881;-0,0086;-0,0082;-0,0586;56,35107937;37,52142201;0,00000000;
22:52:24:883;-0,0086;-0,0082;-0,0586;56,35107937;37,52142201;0,00000000;
22:52:24:885;-0,0086;-0,0082;-0,0586;56,35107937;37,52142201;0,00000000;
22:52:24:887;-0,0086;-0,0082;-0,0586;56,35107937;37,52142201;0,00000000;
22:52:24:941;-0,0086;-0,0082;-0,0586;56,35107937;37,52142201;0,00000000;
22:52:24:944;0,0068;-0,0156;-0,0030;56,35107937;37,52142201;0,00000000;
22:52:24:959;0,0068;-0,0156;-0,0030;56,35107937;37,52142201;0,00000000;
22:52:24:963;0,0068;-0,0156;-0,0030;56,35107937;37,52142201;0,00000000;
22:52:24:967;0,0068;-0,0156;-0,0030;56,35107937;37,52142201;0,00000000;
22:52:24:969;0,0068;-0,0156;-0,0030;56,35107937;37,52142201;0,00000000;
22:52:24:974;0,0068;-0,0156;-0,0030;56,35107937;37,52142201;0,00000000;
22:52:24:977;0,0059;-0,0149;-0,0028;56,35107937;37,52142201;0,00000000;
22:52:25:031;0,0059;-0,0149;-0,0028;56,35107937;37,52142201;0,00000000;
22:52:25:033;0,0017;-0,0063;0,0438;56,35107937;37,52142201;0,00000000;
22:52:25:036;0,0017;-0,0063;0,0438;56,35107937;37,52142201;0,00000000;
22:52:25:038;0,0017;-0,0063;0,0438;56,35107937;37,52142201;0,00000000;
22:52:25:040;0,0017;-0,0063;0,0438;56,35107937;37,52142201;0,00000000;
22:52:25:091;0,0017;-0,0063;0,0438;56,35107937;37,52142201;0,00000000;
22:52:25:093;-0,0231;-0,0062;0,0075;56,35107937;37,52142201;0,00000000;
22:52:25:097;-0,0231;-0,0062;0,0075;56,35107937;37,52142201;0,00000000;
22:52:25:100;-0,0231;-0,0062;0,0075;56,35107937;37,52142201;0,00000000;
22:52:25:101;-0,0231;-0,0062;0,0075;56,35107937;37,52142201;0,00000000;
22:52:25:150;-0,0231;-0,0062;0,0075;56,35107937;37,52142201;0,00000000;
22:52:25:152;-0,0109;-0,0126;-0,0524;56,35107937;37,52142201;0,00000000;
22:52:25:175;-0,0109;-0,0126;-0,0524;56,35107937;37,52142201;0,00000000;
22:52:25:179;-0,0109;-0,0126;-0,0524;56,35107937;37,52142201;0,00000000;
22:52:25:181;-0,0109;-0,0126;-0,0524;56,35107937;37,52142201;0,00000000;
22:52:25:184;-0,0109;-0,0126;-0,0524;56,35107937;37,52142201;0,00000000;
22:52:25:230;-0,0109;-0,0126;-0,0524;56,35107937;37,52142201;0,00000000;
22:52:25:235;-0,0141;-0,0205;0,0419;56,35107937;37,52142201;0,00000000;
22:52:25:253;-0,0141;-0,0205;0,0419;56,35107937;37,52142201;0,00000000;
22:52:25:256;-0,0141;-0,0205;0,0419;56,35107937;37,52142201;0,00000000;
22:52:25:258;-0,0141;-0,0205;0,0419;56,35107937;37,52142201;0,00000000;
22:52:25:260;-0,0141;-0,0205;0,0419;56,35107937;37,52142201;0,00000000;
22:52:25:312;-0,0141;-0,0205;0,0419;56,35107937;37,52142201;0,00000000;
22:52:25:314;-0,0200;-0,0046;0,0331;56,35107937;37,52142201;0,00000000;
22:52:25:316;-0,0200;-0,0046;0,0331;56,35107937;37,52142201;0,00000000;
22:52:25:317;-0,0200;-0,0046;0,0331;56,35107937;37,52142201;0,00000000;
22:52:25:319;-0,0200;-0,0046;0,0331;56,35107937;37,52142201;0,00000000;
22:52:25:373;-0,0200;-0,0046;0,0331;56,35107937;37,52142201;0,00000000;
22:52:25:375;0,0172;-0,0044;-0,0601;56,35107937;37,52142201;0,00000000;
22:52:25:391;0,0172;-0,0044;-0,0601;56,35107937;37,52142201;0,00000000;
22:52:25:394;0,0172;-0,0044;-0,0601;56,35107937;37,52142201;0,00000000;
22:52:25:397;0,0172;-0,0044;-0,0601;56,35107937;37,52142201;0,00000000;
22:52:25:399;0,0172;-0,0044;-0,0601;56,35107937;37,52142201;0,00000000;
22:52:25:400;0,0172;-0,0044;-0,0601;56,35107937;37,52142201;0,00000000;
22:52:25:401;0,0142;-0,0052;-0,0536;56,35107937;37,52142201;0,00000000;
22:52:25:452;0,0142;-0,0052;-0,0536;56,35107937;37,52142201;0,00000000;
22:52:25:454;0,0070;0,0271;-0,0215;56,35107937;37,52142201;0,00000000;
22:52:25:469;0,0070;0,0271;-0,0215;56,35107937;37,52142201;0,00000000;
22:52:25:470;0,0070;0,0271;-0,0215;56,35107937;37,52142201;0,00000000;
22:52:25:471;0,0070;0,0271;-0,0215;56,35107937;37,52142201;0,00000000;
22:52:25:473;0,0070;0,0271;-0,0215;56,35107937;37,52142201;0,00000000;
22:52:25:529;0,0070;0,0271;-0,0215;56,35107937;37,52142201;0,00000000;
22:52:25:552;0,0070;0,0271;-0,0215;56,35107937;37,52142201;0,00000000;
22:52:25:554;-0,0267;-0,0660;0,0348;56,35107937;37,52142201;0,00000000;
22:52:25:607;-0,0267;-0,0660;0,0348;56,35107937;37,52142201;0,00000000;
22:52:25:611;-0,0267;-0,0660;0,0348;56,35107937;37,52142201;0,00000000;
22:52:25:616;-0,0267;-0,0660;0,0348;56,35107937;37,52142201;0,00000000;
22:52:25:620;-0,0267;-0,0660;0,0348;56,35107937;37,52142201;0,00000000;
22:52:25:621;-0,0267;-0,0660;0,0348;56,35107937;37,52142201;0,00000000;
22:52:25:625;-0,0267;-0,0660;0,0348;56,35107937;37,52142201;0,00000000;
22:52:25:627;-0,0267;-0,0660;0,0348;56,35107937;37,52142201;0,00000000;
22:52:25:628;0,0068;-0,0206;-0,0219;56,35107937;37,52142201;0,00000000;
22:52:25:662;0,0068;-0,0206;-0,0219;56,35107937;37,52142201;0,00000000;
22:52:25:663;0,0165;0,0147;-0,0214;56,35106318;37,52144904;0,00000000;
22:52:25:686;0,0165;0,0147;-0,0214;56,35106318;37,52144904;0,00000000;
22:52:25:687;0,0165;0,0147;-0,0214;56,35106318;37,52144904;0,00000000;
22:52:25:688;0,0165;0,0147;-0,0214;56,35106318;37,52144904;0,00000000;
22:52:25:689;0,0165;0,0147;-0,0214;56,35106318;37,52144904;0,00000000;
22:52:25:743;0,0165;0,0147;-0,0214;56,35106318;37,52144904;0,00000000;
22:52:25:744;-0,0318;0,0210;0,0323;56,35106318;37,52144904;0,00000000;
22:52:25:745;-0,0318;0,0210;0,0323;56,35106318;37,52144904;0,00000000;
22:52:25:745;-0,0318;0,0210;0,0323;56,35106318;37,52144904;0,00000000;
22:52:25:746;-0,0318;0,0210;0,0323;56,35106318;37,52144904;0,00000000;
22:52:25:804;-0,0318;0,0210;0,0323;56,35106318;37,52144904;0,00000000;
22:52:25:807;-0,0233;-0,0177;0,0131;56,35106318;37,52144904;0,00000000;
22:52:25:824;-0,0233;-0,0177;0,0131;56,35106318;37,52144904;0,00000000;
22:52:25:826;0,0133;-0,0430;-0,0275;56,35106318;37,52144904;0,00000000;
22:52:25:830;0,0133;-0,0430;-0,0275;56,35106318;37,52144904;0,00000000;
22:52:25:832;0,0133;-0,0430;-0,0275;56,35106318;37,52144904;0,00000000;
22:52:25:834;0,0133;-0,0430;-0,0275;56,35106318;37,52144904;0,00000000;
22:52:25:836;0,0133;-0,0430;-0,0275;56,35106318;37,52144904;0,00000000;
22:52:25:885;0,0133;-0,0430;-0,0275;56,35106318;37,52144904;0,00000000;
22:52:25:888;0,0230;-0,0269;-0,0236;56,35106318;37,52144904;0,00000000;
22:52:25:905;0,0230;-0,0269;-0,0236;56,35106318;37,52144904;0,00000000;
22:52:25:908;0,0230;-0,0269;-0,0236;56,35106318;37,52144904;0,00000000;
22:52:25:910;0,0230;-0,0269;-0,0236;56,35106318;37,52144904;0,00000000;
22:52:25:954;0,0230;-0,0269;-0,0236;56,35106318;37,52144904;0,00000000;
22:52:25:958;-0,0195;0,0155;0,0295;56,35106318;37,52144904;0,00000000;
22:52:25:961;-0,0195;0,0155;0,0295;56,35106318;37,52144904;0,00000000;
22:52:25:963;-0,0195;0,0155;0,0295;56,35106318;37,52144904;0,00000000;
22:52:25:965;-0,0195;0,0155;0,0295;56,35106318;37,52144904;0,00000000;
22:52:26:007;-0,0195;0,0155;0,0295;56,35106318;37,52144904;0,00000000;
22:52:26:009;-0,0172;0,0042;0,0059;56,35106318;37,52144904;0,00000000;
22:52:26:040;-0,0172;0,0042;0,0059;56,35106318;37,52144904;0,00000000;
22:52:26:042;-0,0172;0,0042;0,0059;56,35106318;37,52144904;0,00000000;
22:52:26:044;-0,0172;0,0042;0,0059;56,35106318;37,52144904;0,00000000;
22:52:26:046;-0,0172;0,0042;0,0059;56,35106318;37,52144904;0,00000000;
22:52:26:094;-0,0172;0,0042;0,0059;56,35106318;37,52144904;0,00000000;
22:52:26:097;0,0034;-0,0306;-0,0136;56,35106318;37,52144904;0,00000000;
22:52:26:120;0,0034;-0,0306;-0,0136;56,35106318;37,52144904;0,00000000;
22:52:26:124;0,0024;-0,0285;-0,0123;56,35106318;37,52144904;0,00000000;
22:52:26:126;0,0024;-0,0285;-0,0123;56,35106318;37,52144904;0,00000000;
22:52:26:128;0,0024;-0,0285;-0,0123;56,35106318;37,52144904;0,00000000;
22:52:26:130;0,0024;-0,0285;-0,0123;56,35106318;37,52144904;0,00000000;
22:52:26:133;0,0024;-0,0285;-0,0123;56,35106318;37,52144904;0,00000000;
22:52:26:177;0,0024;-0,0285;-0,0123;56,35106318;37,52144904;0,00000000;
22:52:26:181;0,0165;-0,0188;0,0058;56,35106318;37,52144904;0,00000000;
22:52:26:183;0,0165;-0,0188;0,0058;56,35106318;37,52144904;0,00000000;
22:52:26:185;0,0165;-0,0188;0,0058;56,35106318;37,52144904;0,00000000;
22:52:26:187;0,0165;-0,0188;0,0058;56,35106318;37,52144904;0,00000000;
22:52:26:237;0,0165;-0,0188;0,0058;56,35106318;37,52144904;0,00000000;
22:52:26:240;-0,0312;0,0075;0,0177;56,35106318;37,52144904;0,00000000;
22:52:26:256;-0,0312;0,0075;0,0177;56,35106318;37,52144904;0,00000000;
22:52:26:259;-0,0312;0,0075;0,0177;56,35106318;37,52144904;0,00000000;
22:52:26:261;-0,0312;0,0075;0,0177;56,35106318;37,52144904;0,00000000;
22:52:26:263;-0,0312;0,0075;0,0177;56,35106318;37,52144904;0,00000000;
22:52:26:328;-0,0312;0,0075;0,0177;56,35106318;37,52144904;0,00000000;
22:52:26:331;0,0082;-0,0062;-0,0184;56,35106318;37,52144904;0,00000000;
22:52:26:333;0,0082;-0,0062;-0,0184;56,35106318;37,52144904;0,00000000;
22:52:26:336;0,0082;-0,0062;-0,0184;56,35106318;37,52144904;0,00000000;
22:52:26:337;0,0082;-0,0062;-0,0184;56,35106318;37,52144904;0,00000000;
22:52:26:339;0,0082;-0,0062;-0,0184;56,35106318;37,52144904;0,00000000;
22:52:26:388;0,0082;-0,0062;-0,0184;56,35106318;37,52144904;0,00000000;
22:52:26:391;-0,0021;-0,0076;0,0173;56,35106318;37,52144904;0,00000000;
22:52:26:394;-0,0021;-0,0076;0,0173;56,35106318;37,52144904;0,00000000;
22:52:26:397;-0,0021;-0,0076;0,0173;56,35106318;37,52144904;0,00000000;
22:52:26:398;-0,0021;-0,0076;0,0173;56,35106318;37,52144904;0,00000000;
22:52:26:448;-0,0021;-0,0076;0,0173;56,35106318;37,52144904;0,00000000;
22:52:26:451;-0,0192;-0,0268;-0,0040;56,35106318;37,52144904;0,00000000;
22:52:26:475;-0,0192;-0,0268;-0,0040;56,35106318;37,52144904;0,00000000;
22:52:26:478;-0,0192;-0,0268;-0,0040;56,35106318;37,52144904;0,00000000;
22:52:26:480;-0,0192;-0,0268;-0,0040;56,35106318;37,52144904;0,00000000;
22:52:26:483;-0,0192;-0,0268;-0,0040;56,35106318;37,52144904;0,00000000;
22:52:26:527;-0,0192;-0,0268;-0,0040;56,35106318;37,52144904;0,00000000;
22:52:26:530;-0,0057;-0,0151;-0,0106;56,35106318;37,52144904;0,00000000;
22:52:26:550;0,0157;0,0071;-0,0089;56,35106318;37,52144904;0,00000000;
22:52:26:553;0,0157;0,0071;-0,0089;56,35106318;37,52144904;0,00000000;
22:52:26:556;0,0157;0,0071;-0,0089;56,35106318;37,52144904;0,00000000;
22:52:26:558;0,0157;0,0071;-0,0089;56,35106318;37,52144904;0,00000000;
22:52:26:560;0,0157;0,0071;-0,0089;56,35106318;37,52144904;0,00000000;
22:52:26:563;0,0157;0,0071;-0,0089;56,35106318;37,52144904;0,00000000;
22:52:26:609;0,0157;0,0071;-0,0089;56,35106318;37,52144904;0,00000000;
22:52:26:611;-0,0249;0,0036;0,0199;56,35106318;37,52144904;0,00000000;
22:52:26:613;-0,0249;0,0036;0,0199;56,35106318;37,52144904;0,00000000;
22:52:26:614;-0,0249;0,0036;0,0199;56,35106318;37,52144904;0,00000000;
22:52:26:615;-0,0249;0,0036;0,0199;56,35106318;37,52144904;0,00000000;
22:52:26:673;-0,0249;0,0036;0,0199;56,35106318;37,52144904;0,00000000;
22:52:26:678;-0,0180;-0,0262;0,0055;56,35104607;37,52145456;0,00000000;
22:52:26:688;-0,0180;-0,0262;0,0055;56,35104607;37,52145456;0,00000000;
22:52:26:690;-0,0180;-0,0262;0,0055;56,35104607;37,52145456;0,00000000;
22:52:26:691;-0,0180;-0,0262;0,0055;56,35104607;37,52145456;0,00000000;
22:52:26:693;-0,0180;-0,0262;0,0055;56,35104607;37,52145456;0,00000000;
22:52:26:748;-0,0180;-0,0262;0,0055;56,35104607;37,52145456;0,00000000;
22:52:26:750;0,0031;-0,0234;-0,0147;56,35104607;37,52145456;0,00000000;
22:52:26:765;0,0031;-0,0234;-0,0147;56,35104607;37,52145456;0,00000000;
22:52:26:768;0,0031;-0,0234;-0,0147;56,35104607;37,52145456;0,00000000;
22:52:26:770;0,0031;-0,0234;-0,0147;56,35104607;37,52145456;0,00000000;
22:52:26:788;0,0031;-0,0234;-0,0147;56,35104607;37,52145456;0,00000000;
22:52:26:790;0,0129;-0,0009;0,0058;56,35104607;37,52145456;0,00000000;
22:52:26:826;0,0129;-0,0009;0,0058;56,35104607;37,52145456;0,00000000;
22:52:26:828;0,0129;-0,0009;0,0058;56,35104607;37,52145456;0,00000000;
22:52:26:850;0,0129;-0,0009;0,0058;56,35104607;37,52145456;0,00000000;
22:52:26:852;-0,0236;0,0086;0,0280;56,35104607;37,52145456;0,00000000;
22:52:26:905;-0,0236;0,0086;0,0280;56,35104607;37,52145456;0,00000000;
22:52:26:908;-0,0213;0,0059;0,0246;56,35104607;37,52145456;0,00000000;
22:52:26:911;-0,0213;0,0059;0,0246;56,35104607;37,52145456;0,00000000;
22:52:26:913;-0,0213;0,0059;0,0246;56,35104607;37,52145456;0,00000000;
22:52:26:916;-0,0213;0,0059;0,0246;56,35104607;37,52145456;0,00000000;
22:52:26:918;-0,0213;0,0059;0,0246;56,35104607;37,52145456;0,00000000;
22:52:26:919;-0,0213;0,0059;0,0246;56,35104607;37,52145456;0,00000000;
22:52:26:961;-0,0213;0,0059;0,0246;56,35104607;37,52145456;0,00000000;
22:52:26:964;-0,0046;-0,0134;-0,0337;56,35104607;37,52145456;0,00000000;
22:52:26:983;-0,0046;-0,0134;-0,0337;56,35104607;37,52145456;0,00000000;
22:52:26:986;-0,0046;-0,0134;-0,0337;56,35104607;37,52145456;0,00000000;
22:52:26:988;-0,0046;-0,0134;-0,0337;56,35104607;37,52145456;0,00000000;
22:52:26:990;-0,0046;-0,0134;-0,0337;56,35104607;37,52145456;0,00000000;
22:52:27:041;-0,0046;-0,0134;-0,0337;56,35104607;37,52145456;0,00000000;
22:52:27:045;0,0188;-0,0166;0,0115;56,35104607;37,52145456;0,00000000;
22:52:27:047;0,0188;-0,0166;0,0115;56,35104607;37,52145456;0,00000000;
22:52:27:049;0,0188;-0,0166;0,0115;56,35104607;37,52145456;0,00000000;
22:52:27:051;0,0188;-0,0166;0,0115;56,35104607;37,52145456;0,00000000;
22:52:27:100;0,0188;-0,0166;0,0115;56,35104607;37,52145456;0,00000000;
22:52:27:103;-0,0166;0,0023;-0,0019;56,35104607;37,52145456;0,00000000;
22:52:27:122;-0,0166;0,0023;-0,0019;56,35104607;37,52145456;0,00000000;
22:52:27:124;-0,0166;0,0023;-0,0019;56,35104607;37,52145456;0,00000000;
22:52:27:126;-0,0166;0,0023;-0,0019;56,35104607;37,52145456;0,00000000;
22:52:27:128;-0,0166;0,0023;-0,0019;56,35104607;37,52145456;0,00000000;
22:52:27:182;-0,0166;0,0023;-0,0019;56,35104607;37,52145456;0,00000000;
22:52:27:184;-0,0065;-0,0195;-0,0116;56,35104607;37,52145456;0,00000000;
22:52:27:200;-0,0065;-0,0195;-0,0116;56,35104607;37,52145456;0,00000000;
22:52:27:202;-0,0065;-0,0195;-0,0116;56,35104607;37,52145456;0,00000000;
22:52:27:205;-0,0065;-0,0195;-0,0116;56,35104607;37,52145456;0,00000000;
22:52:27:207;-0,0065;-0,0195;-0,0116;56,35104607;37,52145456;0,00000000;
22:52:27:251;-0,0065;-0,0195;-0,0116;56,35104607;37,52145456;0,00000000;
22:52:27:253;0,0108;-0,0150;-0,0145;56,35104607;37,52145456;0,00000000;
22:52:27:258;0,0108;-0,0150;-0,0145;56,35104607;37,52145456;0,00000000;
22:52:27:260;0,0108;-0,0150;-0,0145;56,35104607;37,52145456;0,00000000;
22:52:27:261;0,0108;-0,0150;-0,0145;56,35104607;37,52145456;0,00000000;
22:52:27:304;0,0108;-0,0150;-0,0145;56,35104607;37,52145456;0,00000000;
22:52:27:306;-0,0063;-0,0024;0,0233;56,35104607;37,52145456;0,00000000;
22:52:27:337;-0,0143;-0,0253;0,0093;56,35104607;37,52145456;0,00000000;
22:52:27:340;-0,0143;-0,0253;0,0093;56,35104607;37,52145456;0,00000000;
22:52:27:342;-0,0143;-0,0253;0,0093;56,35104607;37,52145456;0,00000000;
22:52:27:344;-0,0143;-0,0253;0,0093;56,35104607;37,52145456;0,00000000;
22:52:27:346;-0,0143;-0,0253;0,0093;56,35104607;37,52145456;0,00000000;
22:52:27:348;-0,0143;-0,0253;0,0093;56,35104607;37,52145456;0,00000000;
22:52:27:392;-0,0143;-0,0253;0,0093;56,35104607;37,52145456;0,00000000;
22:52:27:395;0,0076;-0,0079;-0,0173;56,35104607;37,52145456;0,00000000;
22:52:27:414;0,0076;-0,0079;-0,0173;56,35104607;37,52145456;0,00000000;
22:52:27:418;0,0076;-0,0079;-0,0173;56,35104607;37,52145456;0,00000000;
22:52:27:420;0,0076;-0,0079;-0,0173;56,35104607;37,52145456;0,00000000;
22:52:27:422;0,0076;-0,0079;-0,0173;56,35104607;37,52145456;0,00000000;
22:52:27:473;0,0076;-0,0079;-0,0173;56,35104607;37,52145456;0,00000000;
22:52:27:476;0,0226;0,0099;-0,0112;56,35104607;37,52145456;0,00000000;
22:52:27:479;0,0226;0,0099;-0,0112;56,35104607;37,52145456;0,00000000;
22:52:27:481;0,0226;0,0099;-0,0112;56,35104607;37,52145456;0,00000000;
22:52:27:483;0,0226;0,0099;-0,0112;56,35104607;37,52145456;0,00000000;
22:52:27:533;0,0226;0,0099;-0,0112;56,35104607;37,52145456;0,00000000;
22:52:27:536;-0,0219;0,0036;0,0312;56,35104607;37,52145456;0,00000000;
22:52:27:556;-0,0219;0,0036;0,0312;56,35104607;37,52145456;0,00000000;
22:52:27:559;-0,0219;0,0036;0,0312;56,35104607;37,52145456;0,00000000;
22:52:27:561;-0,0219;0,0036;0,0312;56,35104607;37,52145456;0,00000000;
22:52:27:564;-0,0219;0,0036;0,0312;56,35104607;37,52145456;0,00000000;
22:52:27:575;-0,0195;0,0033;0,0278;56,35104607;37,52145456;0,00000000;
22:52:27:578;-0,0195;0,0033;0,0278;56,35104607;37,52145456;0,00000000;
22:52:27:625;-0,0195;0,0033;0,0278;56,35104607;37,52145456;0,00000000;
22:52:27:628;-0,0195;0,0033;0,0278;56,35104607;37,52145456;0,00000000;
22:52:27:631;-0,0195;0,0033;0,0278;56,35104607;37,52145456;0,00000000;
22:52:27:635;-0,0195;0,0033;0,0278;56,35104607;37,52145456;0,00000000;
22:52:27:639;-0,0084;-0,0219;-0,0062;56,35104607;37,52145456;0,00000000;
22:52:27:684;-0,0084;-0,0219;-0,0062;56,35104607;37,52145456;0,00000000;
22:52:27:686;0,0145;-0,0120;-0,0073;56,35104607;37,52145456;0,00000000;
22:52:27:688;0,0145;-0,0120;-0,0073;56,35104607;37,52145456;0,00000000;
22:52:27:690;0,0145;-0,0120;-0,0073;56,35104607;37,52145456;0,00000000;
22:52:27:692;0,0145;-0,0120;-0,0073;56,35104607;37,52145456;0,00000000;
22:52:27:745;0,0145;-0,0120;-0,0073;56,35104607;37,52145456;0,00000000;
22:52:27:747;0,0094;0,0022;-0,0118;56,35104607;37,52145456;0,00000000;
22:52:27:767;0,0094;0,0022;-0,0118;56,35104607;37,52145456;0,00000000;
22:52:27:769;0,0094;0,0022;-0,0118;56,35104607;37,52145456;0,00000000;
22:52:27:771;0,0094;0,0022;-0,0118;56,35104607;37,52145456;0,00000000;
22:52:27:772;0,0094;0,0022;-0,0118;56,35104607;37,52145456;0,00000000;
22:52:27:827;0,0094;0,0022;-0,0118;56,35104607;37,52145456;0,00000000;
22:52:27:830;0,0000;-0,0151;0,0186;56,35104607;37,52145456;0,00000000;
22:52:27:845;0,0000;-0,0151;0,0186;56,35104607;37,52145456;0,00000000;
22:52:27:847;0,0000;-0,0151;0,0186;56,35104607;37,52145456;0,00000000;
22:52:27:849;0,0000;-0,0151;0,0186;56,35104607;37,52145456;0,00000000;
22:52:27:850;0,0000;-0,0151;0,0186;56,35104607;37,52145456;0,00000000;
22:52:27:907;0,0000;-0,0151;0,0186;56,35104607;37,52145456;0,00000000;
22:52:27:909;0,0119;0,0066;-0,0172;56,35104607;37,52145456;0,00000000;
22:52:27:911;0,0119;0,0066;-0,0172;56,35104607;37,52145456;0,00000000;
22:52:27:913;0,0119;0,0066;-0,0172;56,35104607;37,52145456;0,00000000;
22:52:27:915;0,0119;0,0066;-0,0172;56,35104607;37,52145456;0,00000000;
22:52:27:966;0,0119;0,0066;-0,0172;56,35104607;37,52145456;0,00000000;
22:52:27:969;-0,0066;0,0064;-0,0209;56,35104607;37,52145456;0,00000000;
22:52:27:986;-0,0066;0,0064;-0,0209;56,35104607;37,52145456;0,00000000;
22:52:27:988;-0,0059;0,0057;-0,0185;56,35104607;37,52145456;0,00000000;
22:52:27:992;-0,0059;0,0057;-0,0185;56,35104607;37,52145456;0,00000000;
22:52:27:994;-0,0059;0,0057;-0,0185;56,35104607;37,52145456;0,00000000;
22:52:27:997;-0,0059;0,0057;-0,0185;56,35104607;37,52145456;0,00000000;
22:52:27:999;-0,0059;0,0057;-0,0185;56,35104607;37,52145456;0,00000000;
22:52:28:046;-0,0059;0,0057;-0,0185;56,35104607;37,52145456;0,00000000;
22:52:28:049;-0,0066;-0,0239;0,0211;56,35104607;37,52145456;0,00000000;
22:52:28:067;-0,0066;-0,0239;0,0211;56,35104607;37,52145456;0,00000000;
22:52:28:069;-0,0066;-0,0239;0,0211;56,35104607;37,52145456;0,00000000;
22:52:28:072;-0,0066;-0,0239;0,0211;56,35104607;37,52145456;0,00000000;
22:52:28:074;-0,0066;-0,0239;0,0211;56,35104607;37,52145456;0,00000000;
22:52:28:123;-0,0066;-0,0239;0,0211;56,35104607;37,52145456;0,00000000;
22:52:28:146;-0,0066;-0,0239;0,0211;56,35104607;37,52145456;0,00000000;
22:52:28:149;-0,0075;0,0125;-0,0128;56,35104607;37,52145456;0,00000000;
22:52:28:201;-0,0075;0,0125;-0,0128;56,35104607;37,52145456;0,00000000;
22:52:28:203;-0,0075;0,0125;-0,0128;56,35104607;37,52145456;0,00000000;
22:52:28:205;-0,0075;0,0125;-0,0128;56,35104607;37,52145456;0,00000000;
22:52:28:207;-0,0075;0,0125;-0,0128;56,35104607;37,52145456;0,00000000;
22:52:28:209;-0,0075;0,0125;-0,0128;56,35104607;37,52145456;0,00000000;
22:52:28:211;-0,0075;0,0125;-0,0128;56,35104607;37,52145456;0,00000000;
22:52:28:213;-0,0075;0,0125;-0,0128;56,35104607;37,52145456;0,00000000;
22:52:28:215;-0,0120;-0,0065;0,0035;56,35104607;37,52145456;0,00000000;
22:52:28:258;-0,0120;-0,0065;0,0035;56,35104607;37,52145456;0,00000000;
22:52:28:261;0,0047;-0,0105;-0,0042;56,35104607;37,52145456;0,00000000;
22:52:28:280;0,0047;-0,0105;-0,0042;56,35104607;37,52145456;0,00000000;
22:52:28:284;0,0047;-0,0105;-0,0042;56,35104607;37,52145456;0,00000000;
22:52:28:286;0,0047;-0,0105;-0,0042;56,35104607;37,52145456;0,00000000;
22:52:28:288;0,0047;-0,0105;-0,0042;56,35104607;37,52145456;0,00000000;
22:52:28:338;0,0047;-0,0105;-0,0042;56,35104607;37,52145456;0,00000000;
22:52:28:340;0,0298;0,0109;-0,0030;56,35104607;37,52145456;0,00000000;
22:52:28:343;0,0298;0,0109;-0,0030;56,35104607;37,52145456;0,00000000;
22:52:28:345;0,0298;0,0109;-0,0030;56,35104607;37,52145456;0,00000000;
22:52:28:347;0,0298;0,0109;-0,0030;56,35104607;37,52145456;0,00000000;
22:52:28:352;0,0298;0,0109;-0,0030;56,35104607;37,52145456;0,00000000;
22:52:28:356;0,0265;0,0098;-0,0027;56,35104607;37,52145456;0,00000000;
22:52:28:408;0,0265;0,0098;-0,0027;56,35104607;37,52145456;0,00000000;
22:52:28:411;0,0265;0,0098;-0,0027;56,35104607;37,52145456;0,00000000;
22:52:28:413;0,0265;0,0098;-0,0027;56,35104607;37,52145456;0,00000000;
22:52:28:415;0,0265;0,0098;-0,0027;56,35104607;37,52145456;0,00000000;
22:52:28:417;-0,0207;0,0184;0,0115;56,35104607;37,52145456;0,00000000;
22:52:28:468;-0,0207;0,0184;0,0115;56,35104607;37,52145456;0,00000000;
22:52:28:471;-0,0095;-0,0092;-0,0217;56,35104607;37,52145456;0,00000000;
22:52:28:488;-0,0095;-0,0092;-0,0217;56,35104607;37,52145456;0,00000000;
22:52:28:490;-0,0095;-0,0092;-0,0217;56,35104607;37,52145456;0,00000000;
22:52:28:493;-0,0095;-0,0092;-0,0217;56,35104607;37,52145456;0,00000000;
22:52:28:495;-0,0095;-0,0092;-0,0217;56,35104607;37,52145456;0,00000000;
22:52:28:539;-0,0095;-0,0092;-0,0217;56,35104607;37,52145456;0,00000000;
22:52:28:541;0,0050;-0,0003;0,0017;56,35104607;37,52145456;0,00000000;
22:52:28:556;0,0050;-0,0003;0,0017;56,35104607;37,52145456;0,00000000;
22:52:28:558;0,0050;-0,0003;0,0017;56,35104607;37,52145456;0,00000000;
22:52:28:559;0,0050;-0,0003;0,0017;56,35104607;37,52145456;0,00000000;
22:52:28:598;0,0050;-0,0003;0,0017;56,35104607;37,52145456;0,00000000;
22:52:28:601;-0,0184;-0,0113;-0,0030;56,35104607;37,52145456;0,00000000;
22:52:28:633;-0,0184;-0,0113;-0,0030;56,35104607;37,52145456;0,00000000;
22:52:28:637;-0,0184;-0,0113;-0,0030;56,35104607;37,52145456;0,00000000;
22:52:28:639;-0,0184;-0,0113;-0,0030;56,35104607;37,52145456;0,00000000;
22:52:28:641;-0,0184;-0,0113;-0,0030;56,35104607;37,52145456;0,00000000;
22:52:28:696;-0,0184;-0,0113;-0,0030;56,35104607;37,52145456;0,00000000;
22:52:28:698;0,0044;-0,0034;0,0061;56,35104607;37,52145456;0,00000000;
22:52:28:709;0,0044;-0,0034;0,0061;56,35104607;37,52145456;0,00000000;
22:52:28:711;0,0037;-0,0029;0,0055;56,35104607;37,52145456;0,00000000;
22:52:28:713;0,0037;-0,0029;0,0055;56,35104607;37,52145456;0,00000000;
22:52:28:715;0,0037;-0,0029;0,0055;56,35104607;37,52145456;0,00000000;
22:52:28:717;0,0037;-0,0029;0,0055;56,35104607;37,52145456;0,00000000;
22:52:28:718;0,0037;-0,0029;0,0055;56,35104607;37,52145456;0,00000000;
22:52:28:770;0,0037;-0,0029;0,0055;56,35104607;37,52145456;0,00000000;
22:52:28:772;0,0166;0,0147;-0,0107;56,35104607;37,52145456;0,00000000;
22:52:28:774;0,0166;0,0147;-0,0107;56,35104607;37,52145456;0,00000000;
22:52:28:776;0,0166;0,0147;-0,0107;56,35104607;37,52145456;0,00000000;
22:52:28:779;0,0166;0,0147;-0,0107;56,35104607;37,52145456;0,00000000;
22:52:28:838;-0,0164;0,0058;0,0004;56,35104607;37,52145456;0,00000000;
22:52:28:842;-0,0164;0,0058;0,0004;56,35104607;37,52145456;0,00000000;
22:52:28:852;-0,0164;0,0058;0,0004;56,35104607;37,52145456;0,00000000;
22:52:28:855;-0,0164;0,0058;0,0004;56,35104607;37,52145456;0,00000000;
22:52:28:858;-0,0164;0,0058;0,0004;56,35104607;37,52145456;0,00000000;
22:52:28:860;-0,0164;0,0058;0,0004;56,35104607;37,52145456;0,00000000;
22:52:28:927;-0,0164;0,0058;0,0004;56,35104607;37,52145456;0,00000000;
22:52:28:929;-0,0164;0,0058;0,0004;56,35104607;37,52145456;0,00000000;
22:52:28:935;-0,0164;0,0058;0,0004;56,35104607;37,52145456;0,00000000;
22:52:28:937;-0,0164;0,0058;0,0004;56,35104607;37,52145456;0,00000000;
22:52:28:939;-0,0164;0,0058;0,0004;56,35104607;37,52145456;0,00000000;
22:52:28:941;0,0094;-0,0029;-0,0160;56,35104607;37,52145456;0,00000000;
22:52:28:980;0,0094;-0,0029;-0,0160;56,35104607;37,52145456;0,00000000;
22:52:28:982;-0,0037;0,0104;0,0156;56,35104607;37,52145456;0,00000000;
22:52:28:985;-0,0037;0,0104;0,0156;56,35104607;37,52145456;0,00000000;
22:52:28:986;-0,0037;0,0104;0,0156;56,35104607;37,52145456;0,00000000;
22:52:28:988;-0,0037;0,0104;0,0156;56,35104607;37,52145456;0,00000000;
22:52:29:041;-0,0037;0,0104;0,0156;56,35104607;37,52145456;0,00000000;
22:52:29:044;-0,0086;0,0030;-0,0042;56,35104607;37,52145456;0,00000000;
22:52:29:065;-0,0086;0,0030;-0,0042;56,35104607;37,52145456;0,00000000;
22:52:29:068;-0,0086;0,0030;-0,0042;56,35104607;37,52145456;0,00000000;
22:52:29:070;-0,0086;0,0030;-0,0042;56,35104607;37,52145456;0,00000000;
22:52:29:072;-0,0086;0,0030;-0,0042;56,35104607;37,52145456;0,00000000;
22:52:29:121;-0,0086;0,0030;-0,0042;56,35104607;37,52145456;0,00000000;
22:52:29:123;0,0041;-0,0152;0,0108;56,35104607;37,52145456;0,00000000;
22:52:29:137;0,0041;-0,0152;0,0108;56,35104607;37,52145456;0,00000000;
22:52:29:139;0,0041;-0,0152;0,0108;56,35104607;37,52145456;0,00000000;
22:52:29:141;0,0041;-0,0152;0,0108;56,35104607;37,52145456;0,00000000;
22:52:29:142;0,0041;-0,0152;0,0108;56,35104607;37,52145456;0,00000000;
22:52:29:143;0,0033;-0,0135;0,0096;56,35104607;37,52145456;0,00000000;
22:52:29:191;0,0033;-0,0135;0,0096;56,35104607;37,52145456;0,00000000;
22:52:29:194;0,0203;0,0096;-0,0032;56,35104607;37,52145456;0,00000000;
22:52:29:201;0,0203;0,0096;-0,0032;56,35104607;37,52145456;0,00000000;
22:52:29:204;0,0203;0,0096;-0,0032;56,35104607;37,52145456;0,00000000;
22:52:29:207;0,0203;0,0096;-0,0032;56,35104607;37,52145456;0,00000000;
22:52:29:252;0,0203;0,0096;-0,0032;56,35104607;37,52145456;0,00000000;
22:52:29:256;-0,0155;0,0054;-0,0067;56,35104607;37,52145456;0,00000000;
22:52:29:281;-0,0155;0,0054;-0,0067;56,35104607;37,52145456;0,00000000;
22:52:29:285;-0,0155;0,0054;-0,0067;56,35104607;37,52145456;0,00000000;
22:52:29:287;-0,0155;0,0054;-0,0067;56,35104607;37,52145456;0,00000000;
22:52:29:289;-0,0155;0,0054;-0,0067;56,35104607;37,52145456;0,00000000;
22:52:29:333;-0,0155;0,0054;-0,0067;56,35104607;37,52145456;0,00000000;
22:52:29:336;0,0066;0,0048;0,0019;56,35104607;37,52145456;0,00000000;
22:52:29:358;0,0066;0,0048;0,0019;56,35104607;37,52145456;0,00000000;
22:52:29:360;0,0066;0,0048;0,0019;56,35104607;37,52145456;0,00000000;
22:52:29:362;0,0066;0,0048;0,0019;56,35104607;37,52145456;0,00000000;
22:52:29:363;0,0066;0,0048;0,0019;56,35104607;37,52145456;0,00000000;
22:52:29:396;0,0066;0,0048;0,0019;56,35104607;37,52145456;0,00000000;
22:52:29:398;-0,0030;0,0078;-0,0078;56,35104607;37,52145456;0,00000000;
22:52:29:421;-0,0030;0,0078;-0,0078;56,35104607;37,52145456;0,00000000;
22:52:29:425;-0,0030;0,0078;-0,0078;56,35104607;37,52145456;0,00000000;
22:52:29:453;-0,0030;0,0078;-0,0078;56,35104607;37,52145456;0,00000000;
22:52:29:456;-0,0172;-0,0227;-0,0066;56,35104607;37,52145456;0,00000000;
22:52:29:496;-0,0172;-0,0227;-0,0066;56,35104607;37,52145456;0,00000000;
22:52:29:499;-0,0157;-0,0200;-0,0058;56,35104607;37,52145456;0,00000000;
22:52:29:501;-0,0157;-0,0200;-0,0058;56,35104607;37,52145456;0,00000000;
22:52:29:503;-0,0157;-0,0200;-0,0058;56,35104607;37,52145456;0,00000000;
22:52:29:505;-0,0157;-0,0200;-0,0058;56,35104607;37,52145456;0,00000000;
22:52:29:506;-0,0157;-0,0200;-0,0058;56,35104607;37,52145456;0,00000000;
22:52:29:508;-0,0157;-0,0200;-0,0058;56,35104607;37,52145456;0,00000000;
22:52:29:553;-0,0157;-0,0200;-0,0058;56,35104607;37,52145456;0,00000000;
22:52:29:558;0,0067;0,0006;0,0189;56,35104607;37,52145456;0,00000000;
22:52:29:577;0,0067;0,0006;0,0189;56,35104607;37,52145456;0,00000000;
22:52:29:581;0,0067;0,0006;0,0189;56,35104607;37,52145456;0,00000000;
22:52:29:583;0,0067;0,0006;0,0189;56,35104607;37,52145456;0,00000000;
22:52:29:586;0,0067;0,0006;0,0189;56,35104607;37,52145456;0,00000000;
22:52:29:635;0,0067;0,0006;0,0189;56,35104607;37,52145456;0,00000000;
22:52:29:638;-0,0267;0,0138;0,0019;56,35104607;37,52145456;0,00000000;
22:52:29:641;-0,0267;0,0138;0,0019;56,35104607;37,52145456;0,00000000;
22:52:29:644;-0,0267;0,0138;0,0019;56,35104607;37,52145456;0,00000000;
22:52:29:646;-0,0267;0,0138;0,0019;56,35104607;37,52145456;0,00000000;
22:52:29:713;-0,0267;0,0138;0,0019;56,35104607;37,52145456;0,00000000;
22:52:29:715;0,0043;-0,0165;0,0042;56,35104607;37,52145456;0,00000000;
22:52:29:717;0,0043;-0,0165;0,0042;56,35104607;37,52145456;0,00000000;
22:52:29:718;0,0043;-0,0165;0,0042;56,35104607;37,52145456;0,00000000;
22:52:29:720;0,0043;-0,0165;0,0042;56,35104607;37,52145456;0,00000000;
22:52:29:721;0,0043;-0,0165;0,0042;56,35104607;37,52145456;0,00000000;
22:52:29:775;0,0043;-0,0165;0,0042;56,35104607;37,52145456;0,00000000;
22:52:29:777;0,0041;0,0070;-0,0104;56,35104607;37,52145456;0,00000000;
22:52:29:792;0,0041;0,0070;-0,0104;56,35104607;37,52145456;0,00000000;
22:52:29:794;0,0041;0,0070;-0,0104;56,35104607;37,52145456;0,00000000;
22:52:29:796;0,0041;0,0070;-0,0104;56,35104607;37,52145456;0,00000000;
22:52:29:799;0,0041;0,0070;-0,0104;56,35104607;37,52145456;0,00000000;
22:52:29:845;0,0041;0,0070;-0,0104;56,35104607;37,52145456;0,00000000;
22:52:29:848;0,0108;0,0142;0,0088;56,35104607;37,52145456;0,00000000;
22:52:29:850;0,0108;0,0142;0,0088;56,35104607;37,52145456;0,00000000;
22:52:29:851;0,0108;0,0142;0,0088;56,35104607;37,52145456;0,00000000;
22:52:29:853;0,0108;0,0142;0,0088;56,35104607;37,52145456;0,00000000;
22:52:29:906;0,0108;0,0142;0,0088;56,35104607;37,52145456;0,00000000;
22:52:29:909;-0,0222;-0,0009;-0,0095;56,35104607;37,52145456;0,00000000;
22:52:29:919;-0,0222;-0,0009;-0,0095;56,35104607;37,52145456;0,00000000;
22:52:29:923;-0,0222;-0,0009;-0,0095;56,35104607;37,52145456;0,00000000;
22:52:29:926;-0,0222;-0,0009;-0,0095;56,35104607;37,52145456;0,00000000;
22:52:29:928;-0,0222;-0,0009;-0,0095;56,35104607;37,52145456;0,00000000;
22:52:29:931;-0,0200;-0,0007;-0,0085;56,35104607;37,52145456;0,00000000;
22:52:29:976;-0,0200;-0,0007;-0,0085;56,35104607;37,52145456;0,00000000;
22:52:29:980;0,0038;-0,0138;0,0010;56,35104607;37,52145456;0,00000000;
22:52:29:998;0,0038;-0,0138;0,0010;56,35104607;37,52145456;0,00000000;
22:52:30:002;0,0038;-0,0138;0,0010;56,35104607;37,52145456;0,00000000;
22:52:30:004;0,0038;-0,0138;0,0010;56,35104607;37,52145456;0,00000000;
22:52:30:006;0,0038;-0,0138;0,0010;56,35104607;37,52145456;0,00000000;
22:52:30:057;0,0038;-0,0138;0,0010;56,35104607;37,52145456;0,00000000;
22:52:30:060;-0,0072;0,0133;0,0017;56,35104607;37,52145456;0,00000000;
22:52:30:067;-0,0072;0,0133;0,0017;56,35104607;37,52145456;0,00000000;
22:52:30:069;-0,0072;0,0133;0,0017;56,35104607;37,52145456;0,00000000;
22:52:30:071;-0,0072;0,0133;0,0017;56,35104607;37,52145456;0,00000000;
22:52:30:117;-0,0072;0,0133;0,0017;56,35104607;37,52145456;0,00000000;
22:52:30:119;-0,0013;-0,0155;0,0100;56,35104607;37,52145456;0,00000000;
22:52:30:145;-0,0013;-0,0155;0,0100;56,35104607;37,52145456;0,00000000;
22:52:30:149;-0,0013;-0,0155;0,0100;56,35104607;37,52145456;0,00000000;
22:52:30:152;-0,0013;-0,0155;0,0100;56,35104607;37,52145456;0,00000000;
22:52:30:153;-0,0013;-0,0155;0,0100;56,35104607;37,52145456;0,00000000;
22:52:30:182;-0,0013;-0,0155;0,0100;56,35104607;37,52145456;0,00000000;
22:52:30:185;0,0292;0,0024;-0,0067;56,35104607;37,52145456;0,00000000;
22:52:30:222;0,0292;0,0024;-0,0067;56,35104607;37,52145456;0,00000000;
22:52:30:224;0,0258;0,0023;-0,0059;56,35104607;37,52145456;0,00000000;
22:52:30:227;0,0258;0,0023;-0,0059;56,35104607;37,52145456;0,00000000;
22:52:30:229;0,0258;0,0023;-0,0059;56,35104607;37,52145456;0,00000000;
22:52:30:233;0,0258;0,0023;-0,0059;56,35104607;37,52145456;0,00000000;
22:52:30:235;0,0258;0,0023;-0,0059;56,35104607;37,52145456;0,00000000;
22:52:30:278;0,0258;0,0023;-0,0059;56,35104607;37,52145456;0,00000000;
22:52:30:281;-0,0178;0,0121;0,0205;56,35104607;37,52145456;0,00000000;
22:52:30:284;-0,0178;0,0121;0,0205;56,35104607;37,52145456;0,00000000;
22:52:30:286;-0,0178;0,0121;0,0205;56,35104607;37,52145456;0,00000000;
22:52:30:288;-0,0178;0,0121;0,0205;56,35104607;37,52145456;0,00000000;
22:52:30:339;-0,0112;-0,0116;0,0048;56,35104607;37,52145456;0,00000000;
22:52:30:341;-0,0112;-0,0116;0,0048;56,35104607;37,52145456;0,00000000;
22:52:30:360;-0,0112;-0,0116;0,0048;56,35104607;37,52145456;0,00000000;
22:52:30:363;-0,0112;-0,0116;0,0048;56,35104607;37,52145456;0,00000000;
22:52:30:365;-0,0112;-0,0116;0,0048;56,35104607;37,52145456;0,00000000;
22:52:30:367;-0,0112;-0,0116;0,0048;56,35104607;37,52145456;0,00000000;
22:52:30:418;-0,0112;-0,0116;0,0048;56,35104607;37,52145456;0,00000000;
22:52:30:421;0,0216;0,0118;-0,0075;56,35104607;37,52145456;0,00000000;
22:52:30:439;0,0216;0,0118;-0,0075;56,35104607;37,52145456;0,00000000;
22:52:30:443;0,0216;0,0118;-0,0075;56,35104607;37,52145456;0,00000000;
22:52:30:446;0,0216;0,0118;-0,0075;56,35104607;37,52145456;0,00000000;
22:52:30:448;0,0216;0,0118;-0,0075;56,35104607;37,52145456;0,00000000;
22:52:30:500;0,0216;0,0118;-0,0075;56,35104607;37,52145456;0,00000000;
22:52:30:502;-0,0241;0,0099;0,0207;56,35104607;37,52145456;0,00000000;
22:52:30:505;-0,0241;0,0099;0,0207;56,35104607;37,52145456;0,00000000;
22:52:30:507;-0,0241;0,0099;0,0207;56,35104607;37,52145456;0,00000000;
22:52:30:509;-0,0241;0,0099;0,0207;56,35104607;37,52145456;0,00000000;
22:52:30:559;-0,0241;0,0099;0,0207;56,35104607;37,52145456;0,00000000;
22:52:30:561;-0,0079;-0,0053;-0,0092;56,35104607;37,52145456;0,00000000;
22:52:30:577;-0,0079;-0,0053;-0,0092;56,35104607;37,52145456;0,00000000;
22:52:30:580;-0,0071;-0,0048;-0,0082;56,35104607;37,52145456;0,00000000;
22:52:30:583;-0,0071;-0,0048;-0,0082;56,35104607;37,52145456;0,00000000;
22:52:30:585;-0,0071;-0,0048;-0,0082;56,35104607;37,52145456;0,00000000;
22:52:30:587;-0,0071;-0,0048;-0,0082;56,35104607;37,52145456;0,00000000;
22:52:30:590;-0,0071;-0,0048;-0,0082;56,35104607;37,52145456;0,00000000;
22:52:30:643;-0,0071;-0,0048;-0,0082;56,35104607;37,52145456;0,00000000;
22:52:30:646;0,0010;-0,0138;-0,0045;56,35104607;37,52145456;0,00000000;
22:52:30:671;0,0010;-0,0138;-0,0045;56,35104607;37,52145456;0,00000000;
22:52:30:673;0,0010;-0,0138;-0,0045;56,35103607;37,52145835;0,00000000;
22:52:30:676;0,0010;-0,0138;-0,0045;56,35103607;37,52145835;0,00000000;
22:52:30:677;0,0010;-0,0138;-0,0045;56,35103607;37,52145835;0,00000000;
22:52:30:700;0,0010;-0,0138;-0,0045;56,35103607;37,52145835;0,00000000;
22:52:30:702;0,0044;0,0146;0,0067;56,35103607;37,52145835;0,00000000;
22:52:30:715;0,0044;0,0146;0,0067;56,35103607;37,52145835;0,00000000;
22:52:30:719;0,0044;0,0146;0,0067;56,35103607;37,52145835;0,00000000;
22:52:30:759;0,0044;0,0146;0,0067;56,35103607;37,52145835;0,00000000;
22:52:30:761;-0,0125;-0,0009;0,0039;56,35103607;37,52145835;0,00000000;
22:52:30:791;-0,0125;-0,0009;0,0039;56,35103607;37,52145835;0,00000000;
22:52:30:793;-0,0125;-0,0009;0,0039;56,35103607;37,52145835;0,00000000;
22:52:30:794;-0,0125;-0,0009;0,0039;56,35103607;37,52145835;0,00000000;
22:52:30:796;-0,0125;-0,0009;0,0039;56,35103607;37,52145835;0,00000000;
22:52:30:797;-0,0125;-0,0009;0,0039;56,35103607;37,52145835;0,00000000;
22:52:30:850;-0,0125;-0,0009;0,0039;56,35103607;37,52145835;0,00000000;
22:52:30:851;0,0192;0,0114;-0,0132;56,35103607;37,52145835;0,00000000;
22:52:30:870;0,0192;0,0114;-0,0132;56,35103607;37,52145835;0,00000000;
22:52:30:871;0,0192;0,0114;-0,0132;56,35103607;37,52145835;0,00000000;
22:52:30:872;0,0192;0,0114;-0,0132;56,35103607;37,52145835;0,00000000;
22:52:30:874;0,0192;0,0114;-0,0132;56,35103607;37,52145835;0,00000000;
22:52:30:931;0,0192;0,0114;-0,0132;56,35103607;37,52145835;0,00000000;
22:52:30:932;-0,0124;0,0038;0,0224;56,35103607;37,52145835;0,00000000;
22:52:30:935;-0,0124;0,0038;0,0224;56,35103607;37,52145835;0,00000000;
22:52:30:938;-0,0124;0,0038;0,0224;56,35103607;37,52145835;0,00000000;
22:52:30:940;-0,0124;0,0038;0,0224;56,35103607;37,52145835;0,00000000;
22:52:30:961;-0,0124;0,0038;0,0224;56,35103607;37,52145835;0,00000000;
22:52:30:964;0,0114;-0,0053;0,0152;56,35103607;37,52145835;0,00000000;
22:52:31:010;0,0114;-0,0053;0,0152;56,35103607;37,52145835;0,00000000;
22:52:31:014;0,0119;0,0037;-0,0209;56,35103607;37,52145835;0,00000000;
22:52:31:017;0,0119;0,0037;-0,0209;56,35103607;37,52145835;0,00000000;
22:52:31:018;0,0119;0,0037;-0,0209;56,35103607;37,52145835;0,00000000;
22:52:31:020;0,0119;0,0037;-0,0209;56,35103607;37,52145835;0,00000000;
22:52:31:022;0,0119;0,0037;-0,0209;56,35103607;37,52145835;0,00000000;
22:52:31:071;0,0119;0,0037;-0,0209;56,35103607;37,52145835;0,00000000;
22:52:31:073;-0,0104;-0,0014;-0,0054;56,35103607;37,52145835;0,00000000;
22:52:31:090;-0,0104;-0,0014;-0,0054;56,35103607;37,52145835;0,00000000;
22:52:31:093;-0,0104;-0,0014;-0,0054;56,35103607;37,52145835;0,00000000;
22:52:31:095;-0,0104;-0,0014;-0,0054;56,35103607;37,52145835;0,00000000;
22:52:31:142;-0,0104;-0,0014;-0,0054;56,35103607;37,52145835;0,00000000;
22:52:31:145;-0,0181;-0,0038;-0,0058;56,35103607;37,52145835;0,00000000;
22:52:31:147;-0,0181;-0,0038;-0,0058;56,35103607;37,52145835;0,00000000;
22:52:31:149;-0,0181;-0,0038;-0,0058;56,35103607;37,52145835;0,00000000;
22:52:31:151;-0,0181;-0,0038;-0,0058;56,35103607;37,52145835;0,00000000;
22:52:31:203;-0,0181;-0,0038;-0,0058;56,35103607;37,52145835;0,00000000;
22:52:31:205;0,0065;-0,0061;0,0136;56,35103607;37,52145835;0,00000000;
22:52:31:225;0,0065;-0,0061;0,0136;56,35103607;37,52145835;0,00000000;
22:52:31:228;0,0065;-0,0061;0,0136;56,35103607;37,52145835;0,00000000;
22:52:31:230;0,0065;-0,0061;0,0136;56,35103607;37,52145835;0,00000000;
22:52:31:233;0,0065;-0,0061;0,0136;56,35103607;37,52145835;0,00000000;
22:52:31:283;0,0065;-0,0061;0,0136;56,35103607;37,52145835;0,00000000;
22:52:31:286;0,0198;0,0103;-0,0148;56,35103607;37,52145835;0,00000000;
22:52:31:302;0,0198;0,0103;-0,0148;56,35103607;37,52145835;0,00000000;
22:52:31:305;0,0179;0,0093;-0,0131;56,35103607;37,52145835;0,00000000;
22:52:31:308;0,0179;0,0093;-0,0131;56,35103607;37,52145835;0,00000000;
22:52:31:310;0,0179;0,0093;-0,0131;56,35103607;37,52145835;0,00000000;
22:52:31:312;0,0179;0,0093;-0,0131;56,35103607;37,52145835;0,00000000;
22:52:31:314;0,0179;0,0093;-0,0131;56,35103607;37,52145835;0,00000000;
22:52:31:363;0,0179;0,0093;-0,0131;56,35103607;37,52145835;0,00000000;
22:52:31:366;-0,0044;0,0153;-0,0035;56,35103607;37,52145835;0,00000000;
22:52:31:369;-0,0044;0,0153;-0,0035;56,35103607;37,52145835;0,00000000;
22:52:31:370;-0,0044;0,0153;-0,0035;56,35103607;37,52145835;0,00000000;
22:52:31:372;-0,0044;0,0153;-0,0035;56,35103607;37,52145835;0,00000000;
22:52:31:427;-0,0044;0,0153;-0,0035;56,35103607;37,52145835;0,00000000;
22:52:31:430;-0,0182;-0,0116;0,0058;56,35103607;37,52145835;0,00000000;
22:52:31:443;-0,0182;-0,0116;0,0058;56,35103607;37,52145835;0,00000000;
22:52:31:447;-0,0182;-0,0116;0,0058;56,35103607;37,52145835;0,00000000;
22:52:31:449;-0,0182;-0,0116;0,0058;56,35103607;37,52145835;0,00000000;
22:52:31:451;-0,0182;-0,0116;0,0058;56,35103607;37,52145835;0,00000000;
22:52:31:484;-0,0182;-0,0116;0,0058;56,35103607;37,52145835;0,00000000;
22:52:31:487;-0,0057;-0,0092;0,0143;56,35103607;37,52145835;0,00000000;
22:52:31:521;-0,0057;-0,0092;0,0143;56,35103607;37,52145835;0,00000000;
22:52:31:523;-0,0057;-0,0092;0,0143;56,35103607;37,52145835;0,00000000;
22:52:31:526;-0,0057;-0,0092;0,0143;56,35103607;37,52145835;0,00000000;
22:52:31:528;-0,0057;-0,0092;0,0143;56,35103607;37,52145835;0,00000000;
22:52:31:574;-0,0057;-0,0092;0,0143;56,35103607;37,52145835;0,00000000;
22:52:31:578;-0,0175;0,0010;-0,0103;56,35103607;37,52145835;0,00000000;
22:52:31:582;-0,0175;0,0010;-0,0103;56,35103607;37,52145835;0,00000000;
22:52:31:584;-0,0175;0,0010;-0,0103;56,35103607;37,52145835;0,00000000;
22:52:31:588;-0,0175;0,0010;-0,0103;56,35103607;37,52145835;0,00000000;
22:52:31:634;0,0023;-0,0078;0,0030;56,35103607;37,52145835;0,00000000;
22:52:31:638;0,0023;-0,0078;0,0030;56,35103607;37,52145835;0,00000000;
22:52:31:657;0,0023;-0,0078;0,0030;56,35103607;37,52145835;0,00000000;
22:52:31:659;0,0023;-0,0078;0,0030;56,35103607;37,52145835;0,00000000;
22:52:31:661;0,0023;-0,0078;0,0030;56,35103607;37,52145835;0,00000000;
22:52:31:663;0,0023;-0,0078;0,0030;56,35103607;37,52145835;0,00000000;
22:52:31:714;0,0023;-0,0078;0,0030;56,35103607;37,52145835;0,00000000;
22:52:31:717;0,0202;0,0045;-0,0005;56,35103607;37,52145835;0,00000000;
22:52:31:735;0,0202;0,0045;-0,0005;56,35103607;37,52145835;0,00000000;
22:52:31:738;0,0202;0,0045;-0,0005;56,35103607;37,52145835;0,00000000;
22:52:31:740;0,0202;0,0045;-0,0005;56,35103607;37,52145835;0,00000000;
22:52:31:742;0,0202;0,0045;-0,0005;56,35103607;37,52145835;0,00000000;
22:52:31:744;0,0202;0,0045;-0,0005;56,35103607;37,52145835;0,00000000;
22:52:31:745;-0,0217;0,0074;0,0187;56,35103607;37,52145835;0,00000000;
22:52:31:803;-0,0217;0,0074;0,0187;56,35103607;37,52145835;0,00000000;
22:52:31:808;-0,0080;-0,0140;-0,0090;56,35103607;37,52145835;0,00000000;
22:52:31:811;-0,0080;-0,0140;-0,0090;56,35103607;37,52145835;0,00000000;
22:52:31:812;-0,0080;-0,0140;-0,0090;56,35103607;37,52145835;0,00000000;
22:52:31:816;-0,0080;-0,0140;-0,0090;56,35103607;37,52145835;0,00000000;
22:52:31:866;-0,0080;-0,0140;-0,0090;56,35103607;37,52145835;0,00000000;
22:52:31:869;0,0033;-0,0027;-0,0009;56,35103607;37,52145835;0,00000000;
22:52:31:887;0,0033;-0,0027;-0,0009;56,35103607;37,52145835;0,00000000;
22:52:31:890;0,0033;-0,0027;-0,0009;56,35103607;37,52145835;0,00000000;
22:52:31:892;0,0033;-0,0027;-0,0009;56,35103607;37,52145835;0,00000000;
22:52:31:894;0,0033;-0,0027;-0,0009;56,35103607;37,52145835;0,00000000;
22:52:31:937;0,0033;-0,0027;-0,0009;56,35103607;37,52145835;0,00000000;
22:52:31:940;0,0229;0,0031;0,0066;56,35103607;37,52145835;0,00000000;
22:52:31:960;0,0229;0,0031;0,0066;56,35103607;37,52145835;0,00000000;
22:52:31:962;0,0229;0,0031;0,0066;56,35103607;37,52145835;0,00000000;
22:52:31:964;0,0229;0,0031;0,0066;56,35103607;37,52145835;0,00000000;
22:52:31:967;0,0229;0,0031;0,0066;56,35103607;37,52145835;0,00000000;
22:52:32:008;-0,0216;0,0117;-0,0043;56,35103607;37,52145835;0,00000000;
22:52:32:011;-0,0216;0,0117;-0,0043;56,35103607;37,52145835;0,00000000;
22:52:32:014;-0,0216;0,0117;-0,0043;56,35103607;37,52145835;0,00000000;
22:52:32:017;-0,0216;0,0117;-0,0043;56,35103607;37,52145835;0,00000000;
22:52:32:067;-0,0216;0,0117;-0,0043;56,35103607;37,52145835;0,00000000;
22:52:32:070;-0,0015;-0,0099;0,0005;56,35103607;37,52145835;0,00000000;
22:52:32:089;-0,0015;-0,0099;0,0005;56,35103607;37,52145835;0,00000000;
22:52:32:094;-0,0015;-0,0099;0,0005;56,35103607;37,52145835;0,00000000;
22:52:32:098;-0,0015;-0,0099;0,0005;56,35103607;37,52145835;0,00000000;
22:52:32:101;-0,0015;-0,0099;0,0005;56,35103607;37,52145835;0,00000000;
22:52:32:103;-0,0015;-0,0099;0,0005;56,35103607;37,52145835;0,00000000;
22:52:32:106;-0,0016;-0,0090;0,0004;56,35103607;37,52145835;0,00000000;
22:52:32:148;-0,0016;-0,0090;0,0004;56,35103607;37,52145835;0,00000000;
22:52:32:150;0,0090;-0,0061;-0,0061;56,35103607;37,52145835;0,00000000;
22:52:32:173;0,0090;-0,0061;-0,0061;56,35103607;37,52145835;0,00000000;
22:52:32:177;0,0090;-0,0061;-0,0061;56,35103607;37,52145835;0,00000000;
22:52:32:178;0,0090;-0,0061;-0,0061;56,35103607;37,52145835;0,00000000;
22:52:32:180;0,0090;-0,0061;-0,0061;56,35103607;37,52145835;0,00000000;
22:52:32:228;0,0090;-0,0061;-0,0061;56,35103607;37,52145835;0,00000000;
22:52:32:231;-0,0174;0,0049;0,0006;56,35103607;37,52145835;0,00000000;
22:52:32:233;-0,0174;0,0049;0,0006;56,35103607;37,52145835;0,00000000;
22:52:32:236;-0,0174;0,0049;0,0006;56,35103607;37,52145835;0,00000000;
22:52:32:238;-0,0174;0,0049;0,0006;56,35103607;37,52145835;0,00000000;
22:52:32:269;-0,0174;0,0049;0,0006;56,35103607;37,52145835;0,00000000;
22:52:32:272;-0,0161;0,0042;0,0006;56,35103607;37,52145835;0,00000000;
22:52:32:307;-0,0161;0,0042;0,0006;56,35103607;37,52145835;0,00000000;
22:52:32:309;-0,0161;0,0042;0,0006;56,35103607;37,52145835;0,00000000;
22:52:32:311;-0,0161;0,0042;0,0006;56,35103607;37,52145835;0,00000000;
22:52:32:312;-0,0161;0,0042;0,0006;56,35103607;37,52145835;0,00000000;
22:52:32:368;-0,0161;0,0042;0,0006;56,35103607;37,52145835;0,00000000;
22:52:32:371;0,0186;0,0059;-0,0108;56,35103607;37,52145835;0,00000000;
22:52:32:390;0,0186;0,0059;-0,0108;56,35103607;37,52145835;0,00000000;
22:52:32:393;0,0186;0,0059;-0,0108;56,35103607;37,52145835;0,00000000;
22:52:32:395;0,0186;0,0059;-0,0108;56,35103607;37,52145835;0,00000000;
22:52:32:397;0,0186;0,0059;-0,0108;56,35103607;37,52145835;0,00000000;
22:52:32:439;-0,0139;-0,0026;0,0241;56,35103607;37,52145835;0,00000000;
22:52:32:442;-0,0139;-0,0026;0,0241;56,35103607;37,52145835;0,00000000;
22:52:32:444;-0,0139;-0,0026;0,0241;56,35103607;37,52145835;0,00000000;
22:52:32:446;-0,0139;-0,0026;0,0241;56,35103607;37,52145835;0,00000000;
22:52:32:448;-0,0139;-0,0026;0,0241;56,35103607;37,52145835;0,00000000;
22:52:32:498;-0,0139;-0,0026;0,0241;56,35103607;37,52145835;0,00000000;
22:52:32:500;0,0071;-0,0043;-0,0041;56,35103607;37,52145835;0,00000000;
22:52:32:521;0,0071;-0,0043;-0,0041;56,35103607;37,52145835;0,00000000;
22:52:32:524;0,0146;-0,0030;-0,0096;56,35103607;37,52145835;0,00000000;
22:52:32:527;0,0146;-0,0030;-0,0096;56,35103607;37,52145835;0,00000000;
22:52:32:529;0,0146;-0,0030;-0,0096;56,35103607;37,52145835;0,00000000;
22:52:32:532;0,0146;-0,0030;-0,0096;56,35103607;37,52145835;0,00000000;
22:52:32:534;0,0146;-0,0030;-0,0096;56,35103607;37,52145835;0,00000000;
22:52:32:589;0,0146;-0,0030;-0,0096;56,35103607;37,52145835;0,00000000;
22:52:32:591;0,0061;-0,0002;-0,0034;56,35103607;37,52145835;0,00000000;
22:52:32:592;0,0061;-0,0002;-0,0034;56,35103607;37,52145835;0,00000000;
22:52:32:594;0,0061;-0,0002;-0,0034;56,35103607;37,52145835;0,00000000;
22:52:32:595;0,0061;-0,0002;-0,0034;56,35103607;37,52145835;0,00000000;
22:52:32:651;0,0061;-0,0002;-0,0034;56,35103607;37,52145835;0,00000000;
22:52:32:654;-0,0271;0,0032;-0,0031;56,35103607;37,52145835;0,00000000;
22:52:32:658;-0,0271;0,0032;-0,0031;56,35103607;37,52145835;0,00000000;
22:52:32:659;-0,0271;0,0032;-0,0031;56,35103607;37,52145835;0,00000000;
22:52:32:661;-0,0271;0,0032;-0,0031;56,35103607;37,52145835;0,00000000;
22:52:32:709;-0,0271;0,0032;-0,0031;56,35103607;37,52145835;0,00000000;
22:52:32:712;0,0101;-0,0010;0,0118;56,35103607;37,52145835;0,00000000;
22:52:32:736;0,0101;-0,0010;0,0118;56,35103607;37,52145835;0,00000000;
22:52:32:738;0,0101;-0,0010;0,0118;56,35103607;37,52145835;0,00000000;
22:52:32:740;0,0101;-0,0010;0,0118;56,35103607;37,52145835;0,00000000;
22:52:32:741;0,0101;-0,0010;0,0118;56,35103607;37,52145835;0,00000000;
22:52:32:788;0,0101;-0,0010;0,0118;56,35103607;37,52145835;0,00000000;
22:52:32:789;0,0192;0,0102;-0,0108;56,35103607;37,52145835;0,00000000;
22:52:32:814;0,0192;0,0102;-0,0108;56,35103607;37,52145835;0,00000000;
22:52:32:817;0,0170;0,0092;-0,0096;56,35103607;37,52145835;0,00000000;
22:52:32:820;0,0170;0,0092;-0,0096;56,35103607;37,52145835;0,00000000;
22:52:32:821;0,0170;0,0092;-0,0096;56,35103607;37,52145835;0,00000000;
22:52:32:822;0,0170;0,0092;-0,0096;56,35103607;37,52145835;0,00000000;
22:52:32:824;0,0170;0,0092;-0,0096;56,35103607;37,52145835;0,00000000;
22:52:32:871;0,0170;0,0092;-0,0096;56,35103607;37,52145835;0,00000000;
22:52:32:874;-0,0174;0,0064;-0,0046;56,35103607;37,52145835;0,00000000;
22:52:32:877;-0,0174;0,0064;-0,0046;56,35103607;37,52145835;0,00000000;
22:52:32:879;-0,0174;0,0064;-0,0046;56,35103607;37,52145835;0,00000000;
22:52:32:881;-0,0174;0,0064;-0,0046;56,35103607;37,52145835;0,00000000;
22:52:32:931;-0,0174;0,0064;-0,0046;56,35103607;37,52145835;0,00000000;
22:52:32:934;-0,0168;-0,0105;0,0090;56,35103607;37,52145835;0,00000000;
22:52:32:956;-0,0168;-0,0105;0,0090;56,35103607;37,52145835;0,00000000;
22:52:32:959;-0,0168;-0,0105;0,0090;56,35103607;37,52145835;0,00000000;
22:52:32:961;-0,0168;-0,0105;0,0090;56,35103607;37,52145835;0,00000000;
22:52:32:965;-0,0168;-0,0105;0,0090;56,35103607;37,52145835;0,00000000;
22:52:33:011;-0,0168;-0,0105;0,0090;56,35103607;37,52145835;0,00000000;
22:52:33:018;0,0176;0,0127;-0,0126;56,35103607;37,52145835;0,00000000;
22:52:33:032;0,0176;0,0127;-0,0126;56,35103607;37,52145835;0,00000000;
22:52:33:034;0,0176;0,0127;-0,0126;56,35103607;37,52145835;0,00000000;
22:52:33:036;0,0176;0,0127;-0,0126;56,35103607;37,52145835;0,00000000;
22:52:33:038;0,0176;0,0127;-0,0126;56,35103607;37,52145835;0,00000000;
22:52:33:051;0,0157;0,0115;-0,0111;56,35103607;37,52145835;0,00000000;
22:52:33:053;0,0157;0,0115;-0,0111;56,35103607;37,52145835;0,00000000;
22:52:33:091;0,0157;0,0115;-0,0111;56,35103607;37,52145835;0,00000000;
22:52:33:112;0,0157;0,0115;-0,0111;56,35103607;37,52145835;0,00000000;
22:52:33:116;-0,0221;-0,0045;-0,0021;56,35103607;37,52145835;0,00000000;
22:52:33:170;-0,0221;-0,0045;-0,0021;56,35103607;37,52145835;0,00000000;
22:52:33:173;-0,0221;-0,0045;-0,0021;56,35103607;37,52145835;0,00000000;
22:52:33:174;-0,0221;-0,0045;-0,0021;56,35103607;37,52145835;0,00000000;
22:52:33:177;-0,0221;-0,0045;-0,0021;56,35103607;37,52145835;0,00000000;
22:52:33:178;-0,0221;-0,0045;-0,0021;56,35103607;37,52145835;0,00000000;
22:52:33:181;-0,0221;-0,0045;-0,0021;56,35103607;37,52145835;0,00000000;
22:52:33:222;-0,0221;-0,0045;-0,0021;56,35103607;37,52145835;0,00000000;
22:52:33:224;0,0202;-0,0012;-0,0090;56,35103607;37,52145835;0,00000000;
22:52:33:248;0,0202;-0,0012;-0,0090;56,35103607;37,52145835;0,00000000;
22:52:33:251;0,0202;-0,0012;-0,0090;56,35103607;37,52145835;0,00000000;
22:52:33:253;0,0202;-0,0012;-0,0090;56,35103607;37,52145835;0,00000000;
22:52:33:254;0,0202;-0,0012;-0,0090;56,35103607;37,52145835;0,00000000;
22:52:33:256;0,0202;-0,0012;-0,0090;56,35103607;37,52145835;0,00000000;
22:52:33:257;-0,0311;0,0101;0,0161;56,35103607;37,52145835;0,00000000;
22:52:33:304;-0,0311;0,0101;0,0161;56,35103607;37,52145835;0,00000000;
22:52:33:307;-0,0206;-0,0071;-0,0137;56,35103607;37,52145835;0,00000000;
22:52:33:309;-0,0206;-0,0071;-0,0137;56,35103607;37,52145835;0,00000000;
22:52:33:311;-0,0206;-0,0071;-0,0137;56,35103607;37,52145835;0,00000000;
22:52:33:314;-0,0206;-0,0071;-0,0137;56,35103607;37,52145835;0,00000000;
22:52:33:364;-0,0206;-0,0071;-0,0137;56,35103607;37,52145835;0,00000000;
22:52:33:367;-0,0008;-0,0122;0,0095;56,35103607;37,52145835;0,00000000;
22:52:33:393;-0,0008;-0,0122;0,0095;56,35103607;37,52145835;0,00000000;
22:52:33:396;-0,0008;-0,0122;0,0095;56,35103607;37,52145835;0,00000000;
22:52:33:399;-0,0008;-0,0122;0,0095;56,35103607;37,52145835;0,00000000;
22:52:33:403;-0,0008;-0,0122;0,0095;56,35103607;37,52145835;0,00000000;
22:52:33:444;-0,0008;-0,0122;0,0095;56,35103607;37,52145835;0,00000000;
22:52:33:447;0,0153;0,0047;0,0003;56,35103607;37,52145835;0,00000000;
22:52:33:464;0,0153;0,0047;0,0003;56,35103607;37,52145835;0,00000000;
22:52:33:467;0,0153;0,0047;0,0003;56,35103607;37,52145835;0,00000000;
22:52:33:469;0,0153;0,0047;0,0003;56,35103607;37,52145835;0,00000000;
22:52:33:470;0,0153;0,0047;0,0003;56,35103607;37,52145835;0,00000000;
22:52:33:524;0,0153;0,0047;0,0003;56,35103607;37,52145835;0,00000000;
22:52:33:526;-0,0084;0,0049;0,0056;56,35103607;37,52145835;0,00000000;
22:52:33:528;-0,0084;0,0049;0,0056;56,35103607;37,52145835;0,00000000;
22:52:33:529;-0,0084;0,0049;0,0056;56,35103607;37,52145835;0,00000000;
22:52:33:531;-0,0084;0,0049;0,0056;56,35103607;37,52145835;0,00000000;
22:52:33:564;-0,0084;0,0049;0,0056;56,35103607;37,52145835;0,00000000;
22:52:33:566;-0,0057;-0,0148;0,0071;56,35103607;37,52145835;0,00000000;
22:52:33:604;-0,0057;-0,0148;0,0071;56,35103607;37,52145835;0,00000000;
22:52:33:607;0,0088;-0,0020;0,0041;56,35103607;37,52145835;0,00000000;
22:52:33:609;0,0088;-0,0020;0,0041;56,35103607;37,52145835;0,00000000;
22:52:33:611;0,0088;-0,0020;0,0041;56,35103607;37,52145835;0,00000000;
22:52:33:613;0,0088;-0,0020;0,0041;56,35103607;37,52145835;0,00000000;
22:52:33:615;0,0088;-0,0020;0,0041;56,35103607;37,52145835;0,00000000;
22:52:33:664;0,0088;-0,0020;0,0041;56,35103607;37,52145835;0,00000000;
22:52:33:667;-0,0042;0,0058;-0,0017;56,35103607;37,52145835;0,00000000;
22:52:33:681;-0,0042;0,0058;-0,0017;56,35103607;37,52145835;0,00000000;
22:52:33:683;-0,0042;0,0058;-0,0017;56,35103607;37,52145835;0,00000000;
22:52:33:684;-0,0042;0,0058;-0,0017;56,35103607;37,52145835;0,00000000;
22:52:33:734;-0,0042;0,0058;-0,0017;56,35103607;37,52145835;0,00000000;
22:52:33:736;-0,0119;-0,0081;0,0042;56,35103607;37,52145835;0,00000000;
22:52:33:738;-0,0119;-0,0081;0,0042;56,35103607;37,52145835;0,00000000;
22:52:33:740;-0,0119;-0,0081;0,0042;56,35103607;37,52145835;0,00000000;
22:52:33:741;-0,0119;-0,0081;0,0042;56,35103607;37,52145835;0,00000000;
22:52:33:796;-0,0119;-0,0081;0,0042;56,35103607;37,52145835;0,00000000;
22:52:33:799;-0,0028;-0,0117;0,0003;56,35103607;37,52145835;0,00000000;
22:52:33:819;-0,0028;-0,0117;0,0003;56,35103607;37,52145835;0,00000000;
22:52:33:826;-0,0028;-0,0117;0,0003;56,35103607;37,52145835;0,00000000;
22:52:33:828;-0,0028;-0,0117;0,0003;56,35103607;37,52145835;0,00000000;
22:52:33:831;-0,0028;-0,0117;0,0003;56,35103607;37,52145835;0,00000000;
22:52:33:876;-0,0028;-0,0117;0,0003;56,35103607;37,52145835;0,00000000;
22:52:33:879;0,0114;0,0015;-0,0153;56,35103607;37,52145835;0,00000000;
22:52:33:896;0,0114;0,0015;-0,0153;56,35103607;37,52145835;0,00000000;
22:52:33:899;0,0114;0,0015;-0,0153;56,35103607;37,52145835;0,00000000;
22:52:33:902;0,0114;0,0015;-0,0153;56,35103607;37,52145835;0,00000000;
22:52:33:904;0,0114;0,0015;-0,0153;56,35103607;37,52145835;0,00000000;
22:52:33:907;0,0114;0,0015;-0,0153;56,35103607;37,52145835;0,00000000;
22:52:33:909;0,0103;0,0016;-0,0136;56,35103607;37,52145835;0,00000000;
22:52:33:957;0,0103;0,0016;-0,0136;56,35103607;37,52145835;0,00000000;
22:52:33:960;-0,0246;0,0005;0,0202;56,35103607;37,52145835;0,00000000;
22:52:33:962;-0,0246;0,0005;0,0202;56,35103607;37,52145835;0,00000000;
22:52:33:964;-0,0246;0,0005;0,0202;56,35103607;37,52145835;0,00000000;
22:52:33:966;-0,0246;0,0005;0,0202;56,35103607;37,52145835;0,00000000;
22:52:34:017;-0,0246;0,0005;0,0202;56,35103607;37,52145835;0,00000000;
22:52:34:020;0,0013;-0,0083;0,0041;56,35103607;37,52145835;0,00000000;
22:52:34:037;0,0013;-0,0083;0,0041;56,35103607;37,52145835;0,00000000;
22:52:34:040;0,0013;-0,0083;0,0041;56,35103607;37,52145835;0,00000000;
22:52:34:043;0,0013;-0,0083;0,0041;56,35103607;37,52145835;0,00000000;
22:52:34:045;0,0013;-0,0083;0,0041;56,35103607;37,52145835;0,00000000;
22:52:34:079;0,0218;-0,0005;-0,0020;56,35103607;37,52145835;0,00000000;
22:52:34:082;0,0218;-0,0005;-0,0020;56,35103607;37,52145835;0,00000000;
22:52:34:114;0,0218;-0,0005;-0,0020;56,35103607;37,52145835;0,00000000;
22:52:34:117;0,0218;-0,0005;-0,0020;56,35103607;37,52145835;0,00000000;
22:52:34:120;0,0218;-0,0005;-0,0020;56,35103607;37,52145835;0,00000000;
22:52:34:123;0,0218;-0,0005;-0,0020;56,35103607;37,52145835;0,00000000;
22:52:34:168;0,0218;-0,0005;-0,0020;56,35103607;37,52145835;0,00000000;
22:52:34:171;-0,0173;-0,0004;-0,0010;56,35103607;37,52145835;0,00000000;
22:52:34:173;-0,0173;-0,0004;-0,0010;56,35103607;37,52145835;0,00000000;
22:52:34:175;-0,0173;-0,0004;-0,0010;56,35103607;37,52145835;0,00000000;
22:52:34:177;-0,0173;-0,0004;-0,0010;56,35103607;37,52145835;0,00000000;
22:52:34:228;-0,0173;-0,0004;-0,0010;56,35103607;37,52145835;0,00000000;
22:52:34:230;0,0015;-0,0094;0,0186;56,35103607;37,52145835;0,00000000;
22:52:34:249;0,0015;-0,0094;0,0186;56,35103607;37,52145835;0,00000000;
22:52:34:252;0,0015;-0,0094;0,0186;56,35103607;37,52145835;0,00000000;
22:52:34:254;0,0015;-0,0094;0,0186;56,35103607;37,52145835;0,00000000;
22:52:34:256;0,0015;-0,0094;0,0186;56,35103607;37,52145835;0,00000000;
22:52:34:309;0,0015;-0,0094;0,0186;56,35103607;37,52145835;0,00000000;
22:52:34:311;0,0120;0,0144;-0,0027;56,35103607;37,52145835;0,00000000;
22:52:34:328;0,0120;0,0144;-0,0027;56,35103607;37,52145835;0,00000000;
22:52:34:331;0,0120;0,0144;-0,0027;56,35103607;37,52145835;0,00000000;
22:52:34:333;0,0120;0,0144;-0,0027;56,35103607;37,52145835;0,00000000;
22:52:34:336;0,0120;0,0144;-0,0027;56,35103607;37,52145835;0,00000000;
22:52:34:338;0,0120;0,0144;-0,0027;56,35103607;37,52145835;0,00000000;
22:52:34:340;-0,0057;0,0104;0,0037;56,35103607;37,52145835;0,00000000;
22:52:34:398;-0,0057;0,0104;0,0037;56,35103607;37,52145835;0,00000000;
22:52:34:401;-0,0057;0,0104;0,0037;56,35103607;37,52145835;0,00000000;
22:52:34:404;-0,0057;0,0104;0,0037;56,35103607;37,52145835;0,00000000;
22:52:34:406;-0,0057;0,0104;0,0037;56,35103607;37,52145835;0,00000000;
22:52:34:408;-0,0137;-0,0175;0,0126;56,35103607;37,52145835;0,00000000;
22:52:34:459;-0,0137;-0,0175;0,0126;56,35103607;37,52145835;0,00000000;
22:52:34:462;0,0102;-0,0046;0,0015;56,35103607;37,52145835;0,00000000;
22:52:34:476;0,0102;-0,0046;0,0015;56,35103607;37,52145835;0,00000000;
22:52:34:478;0,0102;-0,0046;0,0015;56,35103607;37,52145835;0,00000000;
22:52:34:479;0,0102;-0,0046;0,0015;56,35103607;37,52145835;0,00000000;
22:52:34:483;0,0102;-0,0046;0,0015;56,35103607;37,52145835;0,00000000;
22:52:34:529;0,0102;-0,0046;0,0015;56,35103607;37,52145835;0,00000000;
22:52:34:532;-0,0082;0,0154;-0,0026;56,35103607;37,52145835;0,00000000;
22:52:34:553;-0,0082;0,0154;-0,0026;56,35103607;37,52145835;0,00000000;
22:52:34:557;-0,0082;0,0154;-0,0026;56,35103607;37,52145835;0,00000000;
22:52:34:559;-0,0082;0,0154;-0,0026;56,35103607;37,52145835;0,00000000;
22:52:34:561;-0,0082;0,0154;-0,0026;56,35103607;37,52145835;0,00000000;
22:52:34:602;-0,0082;0,0154;-0,0026;56,35103607;37,52145835;0,00000000;
22:52:34:605;-0,0221;0,0026;0,0030;56,35103607;37,52145835;0,00000000;
22:52:34:608;-0,0221;0,0026;0,0030;56,35103607;37,52145835;0,00000000;
22:52:34:611;-0,0221;0,0026;0,0030;56,35103607;37,52145835;0,00000000;
22:52:34:659;-0,0221;0,0026;0,0030;56,35103607;37,52145835;0,00000000;
22:52:34:661;-0,0005;-0,0083;0,0044;56,35103607;37,52145835;0,00000000;
22:52:34:681;-0,0005;-0,0083;0,0044;56,35103607;37,52145835;0,00000000;
22:52:34:685;-0,0006;-0,0074;0,0039;56,35103607;37,52145835;0,00000000;
22:52:34:686;-0,0006;-0,0074;0,0039;56,35103607;37,52145835;0,00000000;
22:52:34:688;-0,0006;-0,0074;0,0039;56,35103607;37,52145835;0,00000000;
22:52:34:689;-0,0006;-0,0074;0,0039;56,35103607;37,52145835;0,00000000;
22:52:34:691;-0,0006;-0,0074;0,0039;56,35103607;37,52145835;0,00000000;
22:52:34:739;-0,0006;-0,0074;0,0039;56,35103607;37,52145835;0,00000000;
22:52:34:740;0,0301;-0,0006;-0,0101;56,35103607;37,52145835;0,00000000;
22:52:34:759;0,0301;-0,0006;-0,0101;56,35103607;37,52145835;0,00000000;
22:52:34:761;0,0301;-0,0006;-0,0101;56,35103607;37,52145835;0,00000000;
22:52:34:762;0,0301;-0,0006;-0,0101;56,35103607;37,52145835;0,00000000;
22:52:34:763;0,0301;-0,0006;-0,0101;56,35103607;37,52145835;0,00000000;
22:52:34:820;0,0301;-0,0006;-0,0101;56,35103607;37,52145835;0,00000000;
22:52:34:825;-0,0154;-0,0112;-0,0125;56,35103607;37,52145835;0,00000000;
22:52:34:827;-0,0154;-0,0112;-0,0125;56,35103607;37,52145835;0,00000000;
22:52:34:829;-0,0154;-0,0112;-0,0125;56,35103607;37,52145835;0,00000000;
22:52:34:833;-0,0154;-0,0112;-0,0125;56,35103607;37,52145835;0,00000000;
22:52:34:865;-0,0154;-0,0112;-0,0125;56,35103607;37,52145835;0,00000000;
22:52:34:867;-0,0136;-0,0099;-0,0111;56,35103607;37,52145835;0,00000000;
22:52:34:900;-0,0136;-0,0099;-0,0111;56,35103607;37,52145835;0,00000000;
22:52:34:902;-0,0136;-0,0099;-0,0111;56,35103607;37,52145835;0,00000000;
22:52:34:904;-0,0136;-0,0099;-0,0111;56,35103607;37,52145835;0,00000000;
