
time;ax;ay;az;Latitude;Longitude;Speed (m/s);
00:45:02:278;0,0128;-0,0853;0,2037;0,00000000;0,00000000;0,00000000;
00:45:02:279;0,0360;-0,0984;0,2047;56,33834178;37,52294628;0,00000000;
00:45:02:281;0,0002;-0,0693;0,1852;56,33834178;37,52294628;0,00000000;
00:45:02:281;0,0035;-0,0509;0,1332;56,33834178;37,52294628;0,00000000;
00:45:02:282;-0,0097;-0,0573;0,0771;56,33834178;37,52294628;0,00000000;
00:45:02:284;-0,0729;-0,0546;-0,0191;56,33834178;37,52294628;0,00000000;
00:45:02:285;-0,0760;0,0004;-0,0217;56,33834178;37,52294628;0,00000000;
00:45:02:286;-0,0458;0,0076;-0,0291;56,33834178;37,52294628;0,00000000;
00:45:02:288;-0,0111;0,0318;-0,0918;56,33834178;37,52294628;0,00000000;
00:45:02:293;0,0135;0,0493;-0,1859;56,33834178;37,52294628;0,00000000;
00:45:02:295;0,0135;0,0493;-0,1859;56,33834178;37,52294628;0,00000000;
00:45:02:297;0,0185;0,0435;-0,1682;56,33834178;37,52294628;0,00000000;
00:45:02:306;0,0086;0,0479;-0,1606;56,33834178;37,52294628;0,00000000;
00:45:02:308;-0,0184;0,0483;-0,0916;56,33834178;37,52294628;0,00000000;
00:45:02:311;-0,0217;0,0444;-0,0852;56,33834178;37,52294628;0,00000000;
00:45:02:313;-0,0217;0,0444;-0,0852;56,33834178;37,52294628;0,00000000;
00:45:02:317;0,0130;0,0409;-0,0601;56,33834178;37,52294628;0,00000000;
00:45:02:321;0,0308;0,0021;-0,0235;56,33834178;37,52294628;0,00000000;
00:45:02:325;0,0581;0,0638;0,0346;56,33834178;37,52294628;0,00000000;
00:45:02:330;0,0544;0,0106;0,0616;56,33834178;37,52294628;0,00000000;
00:45:02:335;0,0104;-0,0260;0,0792;56,33834178;37,52294628;0,00000000;
00:45:02:340;0,0168;-0,0151;0,0540;56,33834178;37,52294628;0,00000000;
00:45:02:345;0,0187;-0,0021;0,0579;56,33834178;37,52294628;0,00000000;
00:45:02:352;-0,0175;0,0152;0,0979;56,33834178;37,52294628;0,00000000;
00:45:02:356;-0,0557;-0,0085;0,0306;56,33834178;37,52294628;0,00000000;
00:45:02:360;-0,0557;-0,0085;0,0306;56,33834178;37,52294628;0,00000000;
00:45:02:362;-0,0316;0,0058;0,0116;56,33834178;37,52294628;0,00000000;
00:45:02:366;-0,0481;0,0198;-0,0072;56,33834178;37,52294628;0,00000000;
00:45:02:371;-0,0481;0,0198;-0,0072;56,33834178;37,52294628;0,00000000;
00:45:02:373;-0,0527;0,0216;-0,0355;56,33834178;37,52294628;0,00000000;
00:45:02:376;-0,0454;0,0211;-0,0685;56,33834178;37,52294628;0,00000000;
00:45:02:381;-0,0478;0,0397;-0,0681;56,33834178;37,52294628;0,00000000;
00:45:02:388;-0,0264;0,0777;-0,1109;56,33834178;37,52294628;0,00000000;
00:45:02:393;0,0090;0,0944;-0,1301;56,33834178;37,52294628;0,00000000;
00:45:02:397;0,0083;0,0302;-0,0946;56,33834178;37,52294628;0,00000000;
00:45:02:404;-0,0308;0,0263;-0,0666;56,33834178;37,52294628;0,00000000;
00:45:02:408;-0,0361;0,0369;-0,0577;56,33834178;37,52294628;0,00000000;
00:45:02:411;0,0203;0,0356;-0,0585;56,33834178;37,52294628;0,00000000;
00:45:02:416;0,0287;0,0156;-0,0690;56,33834178;37,52294628;0,00000000;
00:45:02:422;-0,0199;0,0527;-0,0366;56,33834178;37,52294628;0,00000000;
00:45:02:427;-0,0489;0,0160;0,0003;56,33834178;37,52294628;0,00000000;
00:45:02:428;-0,0489;0,0160;0,0003;56,33834178;37,52294628;0,00000000;
00:45:02:432;-0,0348;0,0222;0,0156;56,33834178;37,52294628;0,00000000;
00:45:02:438;-0,0348;0,0222;0,0156;56,33834178;37,52294628;0,00000000;
00:45:02:440;-0,0207;-0,0099;0,0286;56,33834178;37,52294628;0,00000000;
00:45:02:441;-0,0635;-0,0066;0,0396;56,33834178;37,52294628;0,00000000;
00:45:02:447;-0,0582;0,0201;0,0744;56,33834178;37,52294628;0,00000000;
00:45:02:453;-0,0195;0,0059;0,0619;56,33834178;37,52294628;0,00000000;
00:45:02:458;-0,0449;0,0246;0,0142;56,33834178;37,52294628;0,00000000;
00:45:02:462;-0,0604;0,0216;0,0050;56,33834178;37,52294628;0,00000000;
00:45:02:467;-0,0521;0,0372;0,0224;56,33834178;37,52294628;0,00000000;
00:45:02:473;-0,0343;0,0287;-0,0671;56,33834178;37,52294628;0,00000000;
00:45:02:478;-0,0168;0,0417;-0,0823;56,33834178;37,52294628;0,00000000;
00:45:02:483;-0,0138;0,0618;-0,0476;56,33834178;37,52294628;0,00000000;
00:45:02:489;-0,0347;0,0559;-0,0561;56,33834178;37,52294628;0,00000000;
00:45:02:494;-0,0057;0,0360;-0,0315;56,33834178;37,52294628;0,00000000;
00:45:02:496;-0,0057;0,0360;-0,0315;56,33834178;37,52294628;0,00000000;
00:45:02:498;0,0278;0,0378;-0,0595;56,33834178;37,52294628;0,00000000;
00:45:02:506;0,0278;0,0378;-0,0595;56,33834178;37,52294628;0,00000000;
00:45:02:508;0,0323;0,0470;-0,0828;56,33834178;37,52294628;0,00000000;
00:45:02:511;0,0225;0,0279;-0,0419;56,33834178;37,52294628;0,00000000;
00:45:02:513;-0,0277;0,0424;-0,0348;56,33834178;37,52294628;0,00000000;
00:45:02:519;0,0010;0,0426;-0,0444;56,33834178;37,52294628;0,00000000;
00:45:02:523;0,0129;0,0475;-0,0088;56,33834178;37,52294628;0,00000000;
00:45:02:528;-0,0228;0,0167;-0,0068;56,33834178;37,52294628;0,00000000;
00:45:02:532;-0,0392;0,0005;0,0143;56,33834178;37,52294628;0,00000000;
00:45:02:539;-0,0436;-0,0015;-0,0052;56,33834178;37,52294628;0,00000000;
00:45:02:544;-0,0478;-0,0035;-0,0077;56,33834178;37,52294628;0,00000000;
00:45:02:547;-0,0473;0,0062;-0,0101;56,33834178;37,52294628;0,00000000;
00:45:02:554;-0,0113;-0,0009;-0,0148;56,33834178;37,52294628;0,00000000;
00:45:02:559;-0,0113;-0,0009;-0,0148;56,33834178;37,52294628;0,00000000;
00:45:02:561;-0,0396;-0,0010;0,0020;56,33834178;37,52294628;0,00000000;
00:45:02:563;-0,0390;0,0485;0,0166;56,33834178;37,52294628;0,00000000;
00:45:02:569;-0,0390;0,0485;0,0166;56,33834178;37,52294628;0,00000000;
00:45:02:570;-0,0241;0,0310;0,0311;56,33834178;37,52294628;0,00000000;
00:45:02:574;-0,0330;0,0112;0,0029;56,33834178;37,52294628;0,00000000;
00:45:02:579;-0,0322;0,0174;-0,0178;56,33834178;37,52294628;0,00000000;
00:45:02:583;-0,0480;0,0354;-0,0074;56,33834178;37,52294628;0,00000000;
00:45:02:588;-0,0137;0,0579;-0,0207;56,33834178;37,52294628;0,00000000;
00:45:02:593;-0,0104;0,0422;-0,0434;56,33834178;37,52294628;0,00000000;
00:45:02:597;-0,0073;0,0410;-0,0707;56,33834178;37,52294628;0,00000000;
00:45:02:602;0,0196;0,0399;-0,1050;56,33834178;37,52294628;0,00000000;
00:45:02:607;-0,0109;0,0532;-0,0798;56,33834178;37,52294628;0,00000000;
00:45:02:611;-0,0269;0,0548;-0,0906;56,33834178;37,52294628;0,00000000;
00:45:02:618;-0,0333;0,0755;-0,0991;56,33834178;37,52294628;0,00000000;
00:45:02:623;-0,0333;0,0755;-0,0991;56,33834178;37,52294628;0,00000000;
00:45:02:624;-0,0421;0,0631;-0,0912;56,33834178;37,52294628;0,00000000;
00:45:02:627;-0,0487;0,0628;-0,0835;56,33834178;37,52294628;0,00000000;
00:45:02:632;-0,0487;0,0628;-0,0835;56,33834178;37,52294628;0,00000000;
00:45:02:633;-0,0743;0,0746;-0,0831;56,33834178;37,52294628;0,00000000;
00:45:02:638;-0,0451;0,0674;-0,0376;56,33834178;37,52294628;0,00000000;
00:45:02:642;-0,0494;0,0793;-0,0378;56,33834178;37,52294628;0,00000000;
00:45:02:647;-0,0681;0,0818;-0,0191;56,33834178;37,52294628;0,00000000;
00:45:02:652;-0,0653;0,0654;-0,0291;56,33834178;37,52294628;0,00000000;
00:45:02:657;-0,0484;0,0729;0,0131;56,33834178;37,52294628;0,00000000;
00:45:02:662;-0,0459;0,0612;-0,0019;56,33834178;37,52294628;0,00000000;
00:45:02:669;-0,0650;0,0426;0,0068;56,33834178;37,52294628;0,00000000;
00:45:02:673;-0,0437;0,0670;-0,0084;56,33834178;37,52294628;0,00000000;
00:45:02:677;-0,0560;0,0270;0,0003;56,33834178;37,52294628;0,00000000;
00:45:02:682;-0,0491;0,0113;0,0183;56,33834178;37,52294628;0,00000000;
00:45:02:690;-0,0491;0,0113;0,0183;56,33834178;37,52294628;0,00000000;
00:45:02:692;-0,0470;-0,0042;0,0028;56,33834178;37,52294628;0,00000000;
00:45:02:693;-0,0332;-0,0054;0,0207;56,33834178;37,52294628;0,00000000;
00:45:02:698;-0,0332;-0,0054;0,0207;56,33834178;37,52294628;0,00000000;
00:45:02:699;-0,0338;-0,0304;0,0101;56,33834178;37,52294628;0,00000000;
00:45:02:705;-0,0202;-0,0291;0,0114;56,33834178;37,52294628;0,00000000;
00:45:02:709;-0,0565;-0,0350;0,0365;56,33834178;37,52294628;0,00000000;
00:45:02:712;-0,0545;-0,0386;0,0211;56,33834178;37,52294628;0,00000000;
00:45:02:719;-0,0475;-0,0304;-0,0107;56,33834178;37,52294628;0,00000000;
00:45:02:723;-0,0026;-0,0390;0,0125;56,33834178;37,52294628;0,00000000;
00:45:02:728;0,0110;-0,0310;0,0048;56,33834178;37,52294628;0,00000000;
00:45:02:732;0,0104;-0,0114;-0,0027;56,33834178;37,52294628;0,00000000;
00:45:02:740;0,0004;-0,0254;-0,0481;56,33834178;37,52294628;0,00000000;
00:45:02:743;0,0167;0,0012;-0,0384;56,33834178;37,52294628;0,00000000;
00:45:02:748;0,0448;0,0251;-0,0003;56,33834178;37,52294628;0,00000000;
00:45:02:753;0,0348;0,0108;0,0114;56,33834178;37,52294628;0,00000000;
00:45:02:755;0,0348;0,0108;0,0114;56,33834178;37,52294628;0,00000000;
00:45:02:759;0,0319;0,0204;-0,0031;56,33834178;37,52294628;0,00000000;
00:45:02:762;0,0319;0,0204;-0,0031;56,33834178;37,52294628;0,00000000;
00:45:02:763;0,0435;0,0276;0,0134;56,33834178;37,52294628;0,00000000;
00:45:02:769;0,0336;0,0298;0,0132;56,33834178;37,52294628;0,00000000;
00:45:02:774;0,0380;0,0509;0,0416;56,33834178;37,52294628;0,00000000;
00:45:02:778;0,0520;0,0599;0,0318;56,33834178;37,52294628;0,00000000;
00:45:02:783;0,0231;0,0190;-0,0016;56,33834178;37,52294628;0,00000000;
00:45:02:787;0,0159;0,0092;0,0151;56,33834178;37,52294628;0,00000000;
00:45:02:793;0,0351;0,0421;-0,0394;56,33834178;37,52294628;0,00000000;
00:45:02:798;0,0160;0,0130;-0,0459;56,33834178;37,52294628;0,00000000;
00:45:02:805;-0,0194;0,0364;-0,0168;56,33834178;37,52294628;0,00000000;
00:45:02:808;-0,0022;0,0621;-0,0260;56,33834178;37,52294628;0,00000000;
00:45:02:813;-0,0114;0,0188;-0,0779;56,33834178;37,52294628;0,00000000;
00:45:02:819;-0,0114;0,0188;-0,0779;56,33834178;37,52294628;0,00000000;
00:45:02:820;-0,0015;0,0401;-0,0416;56,33834178;37,52294628;0,00000000;
00:45:02:825;-0,0274;0,0517;-0,0626;56,33834178;37,52294628;0,00000000;
00:45:02:828;-0,0274;0,0517;-0,0626;56,33834178;37,52294628;0,00000000;
00:45:02:829;-0,0057;0,0181;-0,0859;56,33834178;37,52294628;0,00000000;
00:45:02:836;-0,0269;0,0371;-0,0521;56,33834178;37,52294628;0,00000000;
00:45:02:840;-0,0005;0,0560;-0,0660;56,33834178;37,52294628;0,00000000;
00:45:02:844;-0,0194;0,0034;-0,0561;56,33834178;37,52294628;0,00000000;
00:45:02:848;-0,0192;-0,0012;-0,0628;56,33834178;37,52294628;0,00000000;
00:45:02:854;-0,0402;0,0370;-0,0457;56,33834178;37,52294628;0,00000000;
00:45:02:859;-0,0278;0,0273;-0,0336;56,33834178;37,52294628;0,00000000;
00:45:02:863;-0,0249;0,0367;-0,0262;56,33834178;37,52294628;0,00000000;
00:45:02:875;-0,0056;0,0627;-0,0427;56,33834178;37,52294628;0,00000000;
00:45:02:877;-0,0124;0,0648;-0,0354;56,33834181;37,52294626;0,00000000;
00:45:02:879;-0,0621;0,0692;0,0123;56,33834181;37,52294626;0,00000000;
00:45:02:886;-0,0621;0,0692;0,0123;56,33834181;37,52294626;0,00000000;
00:45:02:887;-0,0830;0,0595;-0,0356;56,33834181;37,52294626;0,00000000;
00:45:02:888;-0,0704;0,0688;-0,0403;56,33834181;37,52294626;0,00000000;
00:45:02:893;-0,0704;0,0688;-0,0403;56,33834181;37,52294626;0,00000000;
00:45:02:894;-0,0605;0,0332;0,0047;56,33834181;37,52294626;0,00000000;
00:45:02:899;-0,0698;0,0192;-0,0338;56,33834181;37,52294626;0,00000000;
00:45:02:905;-0,0626;0,0103;-0,0390;56,33834181;37,52294626;0,00000000;
00:45:02:909;-0,0651;0,0277;-0,0418;56,33834181;37,52294626;0,00000000;
00:45:02:913;-0,0867;0,0236;-0,0209;56,33834181;37,52294626;0,00000000;
00:45:02:919;-0,0534;0,0480;-0,0310;56,33834181;37,52294626;0,00000000;
00:45:02:924;-0,0633;0,0082;-0,0554;56,33834181;37,52294626;0,00000000;
00:45:02:928;-0,0351;0,0376;-0,0369;56,33834181;37,52294626;0,00000000;
00:45:02:934;-0,0332;0,0002;0,0053;56,33834181;37,52294626;0,00000000;
00:45:02:938;-0,0454;0,0225;-0,0121;56,33834181;37,52294626;0,00000000;
00:45:02:943;-0,0550;0,0064;0,0134;56,33834181;37,52294626;0,00000000;
00:45:02:950;-0,0550;0,0064;0,0134;56,33834181;37,52294626;0,00000000;
00:45:02:951;-0,0667;0,0211;0,0176;56,33834181;37,52294626;0,00000000;
00:45:02:957;-0,0451;0,0166;0,0123;56,33834181;37,52294626;0,00000000;
00:45:02:959;-0,0451;0,0166;0,0123;56,33834181;37,52294626;0,00000000;
00:45:02:960;-0,0450;-0,0190;0,0714;56,33834181;37,52294626;0,00000000;
00:45:02:963;-0,0471;0,0120;0,0304;56,33834181;37,52294626;0,00000000;
00:45:02:970;-0,0327;-0,0071;0,0301;56,33834181;37,52294626;0,00000000;
00:45:02:975;-0,0563;0,0119;-0,0081;56,33834181;37,52294626;0,00000000;
00:45:02:979;-0,0680;0,0498;-0,0152;56,33834181;37,52294626;0,00000000;
00:45:02:986;-0,0367;0,0305;-0,0081;56,33834181;37,52294626;0,00000000;
00:45:02:990;-0,0558;0,0090;-0,0367;56,33834181;37,52294626;0,00000000;
00:45:02:994;-0,0511;0,0092;-0,0272;56,33834181;37,52294626;0,00000000;
00:45:02:999;-0,0631;0,0096;-0,0203;56,33834181;37,52294626;0,00000000;
00:45:03:006;-0,0420;0,0456;-0,0349;56,33834181;37,52294626;0,00000000;
00:45:03:010;-0,0187;0,0219;-0,0162;56,33834181;37,52294626;0,00000000;
00:45:03:014;-0,0187;0,0219;-0,0162;56,33834181;37,52294626;0,00000000;
00:45:03:015;-0,0551;-0,0133;-0,0166;56,33834181;37,52294626;0,00000000;
00:45:03:021;-0,0247;0,0134;0,0019;56,33834181;37,52294626;0,00000000;
00:45:03:024;-0,0247;0,0134;0,0019;56,33834181;37,52294626;0,00000000;
00:45:03:025;-0,0038;-0,0028;-0,0224;56,33834181;37,52294626;0,00000000;
00:45:03:029;-0,0116;-0,0118;-0,0108;56,33834181;37,52294626;0,00000000;
00:45:03:035;0,0093;0,0053;-0,0159;56,33834181;37,52294626;0,00000000;
00:45:03:040;-0,0199;0,0457;-0,0516;56,33834181;37,52294626;0,00000000;
00:45:03:044;-0,0131;0,0289;-0,0348;56,33834181;37,52294626;0,00000000;
00:45:03:049;-0,0300;0,0049;-0,0631;56,33834181;37,52294626;0,00000000;
00:45:03:056;-0,0089;0,0358;-0,0342;56,33834181;37,52294626;0,00000000;
00:45:03:059;-0,0307;0,0236;-0,0435;56,33834181;37,52294626;0,00000000;
00:45:03:064;-0,0047;0,0189;-0,0529;56,33834181;37,52294626;0,00000000;
00:45:03:070;-0,0052;0,0497;-0,0551;56,33834181;37,52294626;0,00000000;
00:45:03:075;0,0203;0,0805;-0,1048;56,33834181;37,52294626;0,00000000;
00:45:03:079;0,0203;0,0805;-0,1048;56,33834181;37,52294626;0,00000000;
00:45:03:080;0,0099;0,0493;-0,0356;56,33834181;37,52294626;0,00000000;
00:45:03:085;0,0517;0,0376;-0,0501;56,33834181;37,52294626;0,00000000;
00:45:03:090;0,0517;0,0376;-0,0501;56,33834181;37,52294626;0,00000000;
00:45:03:091;0,0385;0,0355;-0,0456;56,33834181;37,52294626;0,00000000;
00:45:03:094;0,0303;0,0359;-0,0221;56,33834181;37,52294626;0,00000000;
00:45:03:099;0,0815;0,0220;0,0059;56,33834181;37,52294626;0,00000000;
00:45:03:105;0,0707;0,0201;-0,0185;56,33834181;37,52294626;0,00000000;
00:45:03:110;0,0624;0,0253;-0,0427;56,33834181;37,52294626;0,00000000;
00:45:03:115;0,0543;-0,0051;0,0188;56,33834181;37,52294626;0,00000000;
00:45:03:121;0,0155;-0,0141;0,0253;56,33834181;37,52294626;0,00000000;
00:45:03:126;0,0270;-0,0159;0,0152;56,33834181;37,52294626;0,00000000;
00:45:03:129;0,0148;-0,0036;-0,0018;56,33834181;37,52294626;0,00000000;
00:45:03:135;0,0193;0,0110;-0,0234;56,33834181;37,52294626;0,00000000;
00:45:03:141;-0,0000;0,0040;0,0051;56,33834181;37,52294626;0,00000000;
00:45:03:145;-0,0000;0,0040;0,0051;56,33834181;37,52294626;0,00000000;
00:45:03:146;-0,0025;0,0209;0,0072;56,33834181;37,52294626;0,00000000;
00:45:03:152;-0,0121;0,0399;-0,0358;56,33834181;37,52294626;0,00000000;
00:45:03:157;-0,0121;0,0399;-0,0358;56,33834181;37,52294626;0,00000000;
00:45:03:159;-0,0264;0,0159;-0,0332;56,33834181;37,52294626;0,00000000;
00:45:03:160;-0,0241;0,0422;-0,0403;56,33834181;37,52294626;0,00000000;
00:45:03:165;-0,0027;0,0516;-0,0118;56,33834181;37,52294626;0,00000000;
00:45:03:170;-0,0314;0,0563;-0,0619;56,33834181;37,52294626;0,00000000;
00:45:03:175;-0,0458;0,0706;-0,0523;56,33834181;37,52294626;0,00000000;
00:45:03:180;-0,0387;0,0541;-0,0121;56,33834181;37,52294626;0,00000000;
00:45:03:187;-0,0435;0,0567;-0,0032;56,33834181;37,52294626;0,00000000;
00:45:03:192;-0,0864;0,0355;-0,0370;56,33834181;37,52294626;0,00000000;
00:45:03:195;-0,0601;0,0644;-0,0301;56,33834181;37,52294626;0,00000000;
00:45:03:203;-0,0509;0,0693;-0,0899;56,33834181;37,52294626;0,00000000;
00:45:03:209;-0,0796;0,0648;-0,0401;56,33834181;37,52294626;0,00000000;
00:45:03:211;-0,0728;0,0579;-0,0311;56,33834181;37,52294626;0,00000000;
00:45:03:213;-0,0728;0,0579;-0,0311;56,33834181;37,52294626;0,00000000;
00:45:03:217;-0,1015;0,0297;0,0064;56,33834181;37,52294626;0,00000000;
00:45:03:223;-0,1394;0,0350;-0,0110;56,33834181;37,52294626;0,00000000;
00:45:03:225;-0,1394;0,0350;-0,0110;56,33834181;37,52294626;0,00000000;
00:45:03:230;-0,1366;0,0664;-0,0378;56,33834181;37,52294626;0,00000000;
00:45:03:231;-0,1600;0,0333;-0,0310;56,33834181;37,52294626;0,00000000;
00:45:03:238;-0,1855;0,0787;-0,0171;56,33834181;37,52294626;0,00000000;
00:45:03:243;-0,2274;0,1094;0,0229;56,33834181;37,52294626;0,00000000;
00:45:03:245;-0,2547;0,1087;-0,0513;56,33834181;37,52294626;0,00000000;
00:45:03:253;-0,2345;0,1057;-0,0488;56,33834181;37,52294626;0,00000000;
00:45:03:258;-0,2549;0,1333;-0,0273;56,33834181;37,52294626;0,00000000;
00:45:03:261;-0,2230;0,0990;-0,0701;56,33834181;37,52294626;0,00000000;
00:45:03:265;-0,2153;0,0793;-0,0793;56,33834181;37,52294626;0,00000000;
00:45:03:272;-0,2127;0,1049;-0,0672;56,33834181;37,52294626;0,00000000;
00:45:03:277;-0,2127;0,1049;-0,0672;56,33834181;37,52294626;0,00000000;
00:45:03:278;-0,1794;0,1042;-0,1004;56,33834181;37,52294626;0,00000000;
00:45:03:282;-0,1538;0,0849;-0,1146;56,33834181;37,52294626;0,00000000;
00:45:03:287;-0,1538;0,0849;-0,1146;56,33834181;37,52294626;0,00000000;
00:45:03:289;-0,1596;0,0967;-0,0980;56,33834181;37,52294626;0,00000000;
00:45:03:291;-0,2059;0,0706;-0,0865;56,33834181;37,52294626;0,00000000;
00:45:03:295;-0,1380;0,0519;-0,0942;56,33834181;37,52294626;0,00000000;
00:45:03:302;-0,1230;0,0693;-0,0521;56,33834181;37,52294626;0,00000000;
00:45:03:307;-0,1344;0,0629;-0,0746;56,33834181;37,52294626;0,00000000;
00:45:03:311;-0,1031;0,0446;-0,0424;56,33834181;37,52294626;0,00000000;
00:45:03:316;-0,0863;0,0407;-0,0222;56,33834181;37,52294626;0,00000000;
00:45:03:322;-0,0721;0,0582;-0,0379;56,33834181;37,52294626;0,00000000;
00:45:03:328;-0,0011;0,0162;-0,0130;56,33834181;37,52294626;0,00000000;
00:45:03:331;-0,0043;0,0077;-0,0239;56,33834181;37,52294626;0,00000000;
00:45:03:337;-0,0050;0,0348;-0,0204;56,33834181;37,52294626;0,00000000;
00:45:03:342;-0,0050;0,0348;-0,0204;56,33834181;37,52294626;0,00000000;
00:45:03:343;-0,0009;0,0355;-0,0359;56,33834181;37,52294626;0,00000000;
00:45:03:346;-0,0089;0,0339;-0,0157;56,33834181;37,52294626;0,00000000;
00:45:03:352;-0,0597;0,0133;-0,0669;56,33834181;37,52294626;0,00000000;
00:45:03:353;-0,0597;0,0133;-0,0669;56,33834181;37,52294626;0,00000000;
00:45:03:357;-0,0367;0,0332;-0,0417;56,33834181;37,52294626;0,00000000;
00:45:03:361;0,0239;-0,0063;-0,0526;56,33834181;37,52294626;0,00000000;
00:45:03:366;0,0127;0,0141;-0,0634;56,33834181;37,52294626;0,00000000;
00:45:03:372;0,0394;0,0581;-0,0291;56,33834181;37,52294626;0,00000000;
00:45:03:377;0,1110;0,0166;-0,0239;56,33834181;37,52294626;0,00000000;
00:45:03:381;0,1108;-0,0126;-0,0638;56,33834181;37,52294626;0,00000000;
00:45:03:386;0,0985;-0,0059;-0,0276;56,33834181;37,52294626;0,00000000;
00:45:03:391;0,1007;-0,0039;0,0178;56,33834181;37,52294626;0,00000000;
00:45:03:396;0,0932;-0,0232;-0,0061;56,33834181;37,52294626;0,00000000;
00:45:03:404;0,0784;-0,0400;-0,0060;56,33834181;37,52294626;0,00000000;
00:45:03:409;0,0140;-0,0496;-0,0416;56,33834181;37,52294626;0,00000000;
00:45:03:411;0,0140;-0,0496;-0,0416;56,33834181;37,52294626;0,00000000;
00:45:03:412;-0,0049;-0,0566;0,0086;56,33834181;37,52294626;0,00000000;
00:45:03:417;-0,0049;-0,0566;0,0086;56,33834181;37,52294626;0,00000000;
00:45:03:419;-0,1381;-0,0661;0,0892;56,33834181;37,52294626;0,00000000;
00:45:03:425;-0,1996;-0,0283;0,1169;56,33834181;37,52294626;0,00000000;
00:45:03:431;-0,2025;0,0562;0,1778;56,33834181;37,52294626;0,00000000;
00:45:03:434;-0,1330;0,0825;0,2028;56,33834181;37,52294626;0,00000000;
00:45:03:444;0,0255;0,0726;0,0923;56,33834181;37,52294626;0,00000000;
00:45:03:447;0,1592;0,0415;-0,1051;56,33834181;37,52294626;0,00000000;
00:45:03:449;0,2211;0,0253;-0,1847;56,33834181;37,52294626;0,00000000;
00:45:03:459;0,1930;0,0051;-0,1452;56,33834181;37,52294626;0,00000000;
00:45:03:462;0,1730;-0,0286;-0,1016;56,33834181;37,52294626;0,00000000;
00:45:03:464;0,1154;-0,0094;-0,0823;56,33834181;37,52294626;0,00000000;
00:45:03:469;0,0583;-0,0115;-0,0562;56,33834181;37,52294626;0,00000000;
00:45:03:472;0,0583;-0,0115;-0,0562;56,33834181;37,52294626;0,00000000;
00:45:03:473;0,0896;-0,0207;0,0219;56,33834181;37,52294626;0,00000000;
00:45:03:479;0,0514;-0,0321;-0,0076;56,33834181;37,52294626;0,00000000;
00:45:03:483;0,0514;-0,0321;-0,0076;56,33834181;37,52294626;0,00000000;
00:45:03:484;0,0322;-0,0338;0,0319;56,33834181;37,52294626;0,00000000;
00:45:03:493;0,0275;-0,0356;0,0307;56,33834181;37,52294626;0,00000000;
00:45:03:495;0,0274;-0,0349;0,0248;56,33834181;37,52294626;0,00000000;
00:45:03:497;0,0345;-0,0177;0,0474;56,33834181;37,52294626;0,00000000;
00:45:03:502;0,0440;-0,0196;0,0699;56,33834181;37,52294626;0,00000000;
00:45:03:507;0,0250;-0,0048;0,0281;56,33834181;37,52294626;0,00000000;
00:45:03:511;0,0490;0,0074;-0,0133;56,33834181;37,52294626;0,00000000;
00:45:03:517;0,0681;0,0194;0,0052;56,33834181;37,52294626;0,00000000;
00:45:03:524;0,0514;0,0218;0,0045;56,33834181;37,52294626;0,00000000;
00:45:03:527;0,0135;0,0195;-0,0082;56,33834181;37,52294626;0,00000000;
00:45:03:532;0,0209;0,0314;-0,0135;56,33834181;37,52294626;0,00000000;
00:45:03:538;0,0141;0,0219;-0,0402;56,33834181;37,52294626;0,00000000;
00:45:03:540;0,0141;0,0219;-0,0402;56,33834181;37,52294626;0,00000000;
00:45:03:543;0,0121;-0,0090;-0,0525;56,33834181;37,52294626;0,00000000;
00:45:03:547;0,0716;-0,0229;-0,0433;56,33834181;37,52294626;0,00000000;
00:45:03:548;0,0716;-0,0229;-0,0433;56,33834181;37,52294626;0,00000000;
00:45:03:556;0,0547;0,0013;-0,0293;56,33834181;37,52294626;0,00000000;
00:45:03:559;0,0544;0,0204;-0,0179;56,33834181;37,52294626;0,00000000;
00:45:03:562;0,0279;-0,0056;-0,0280;56,33834181;37,52294626;0,00000000;
00:45:03:570;0,0398;0,0398;-0,0807;56,33834181;37,52294626;0,00000000;
00:45:03:575;0,0802;0,0493;-0,0855;56,33834181;37,52294626;0,00000000;
00:45:03:578;0,0656;0,0659;-0,0951;56,33834181;37,52294626;0,00000000;
00:45:03:582;0,0224;0,0422;-0,0786;56,33834181;37,52294626;0,00000000;
00:45:03:590;0,0841;0,0830;-0,1146;56,33834181;37,52294626;0,00000000;
00:45:03:593;0,0928;0,0905;-0,1244;56,33834181;37,52294626;0,00000000;
00:45:03:597;0,0677;0,0863;-0,1036;56,33834181;37,52294626;0,00000000;
00:45:03:603;0,0677;0,0863;-0,1036;56,33834181;37,52294626;0,00000000;
00:45:03:605;0,0853;0,0800;-0,1187;56,33834181;37,52294626;0,00000000;
00:45:03:610;0,0907;0,0503;-0,0960;56,33834181;37,52294626;0,00000000;
00:45:03:612;0,0907;0,0503;-0,0960;56,33834181;37,52294626;0,00000000;
00:45:03:613;0,0601;0,0308;-0,1117;56,33834181;37,52294626;0,00000000;
00:45:03:619;0,0675;0,0543;-0,1204;56,33834181;37,52294626;0,00000000;
00:45:03:623;0,0413;0,0471;-0,0865;56,33834181;37,52294626;0,00000000;
00:45:03:627;0,0222;0,0593;-0,0864;56,33834181;37,52294626;0,00000000;
00:45:03:632;0,0150;0,0574;-0,0603;56,33834181;37,52294626;0,00000000;
00:45:03:637;0,0552;0,0816;-0,1081;56,33834181;37,52294626;0,00000000;
00:45:03:643;0,0571;0,0677;-0,1009;56,33834181;37,52294626;0,00000000;
00:45:03:647;0,0090;0,0636;-0,0820;56,33834181;37,52294626;0,00000000;
00:45:03:653;-0,0032;0,0571;-0,0514;56,33834181;37,52294626;0,00000000;
00:45:03:659;0,0086;0,0722;-0,0377;56,33834181;37,52294626;0,00000000;
00:45:03:662;0,0321;0,0540;-0,1215;56,33834181;37,52294626;0,00000000;
00:45:03:670;0,0321;0,0540;-0,1215;56,33834181;37,52294626;0,00000000;
00:45:03:672;0,0150;0,0696;-0,1146;56,33834181;37,52294626;0,00000000;
00:45:03:674;-0,0044;0,1041;-0,0058;56,33834181;37,52294626;0,00000000;
00:45:03:679;-0,0044;0,1041;-0,0058;56,33834181;37,52294626;0,00000000;
00:45:03:680;-0,0617;0,1430;-0,0212;56,33834181;37,52294626;0,00000000;
00:45:03:683;-0,0927;0,1340;-0,0080;56,33834181;37,52294626;0,00000000;
00:45:03:690;-0,0574;0,1249;-0,0067;56,33834181;37,52294626;0,00000000;
00:45:03:695;-0,0630;0,1017;-0,0435;56,33834181;37,52294626;0,00000000;
00:45:03:699;-0,0522;0,0572;-0,0252;56,33834181;37,52294626;0,00000000;
00:45:03:706;-0,0751;0,0724;-0,0713;56,33834181;37,52294626;0,00000000;
00:45:03:711;-0,0648;0,0711;-0,0601;56,33834181;37,52294626;0,00000000;
00:45:03:713;-0,0621;0,0913;-0,0325;56,33834181;37,52294626;0,00000000;
00:45:03:719;-0,0979;0,0829;-0,0503;56,33834181;37,52294626;0,00000000;
00:45:03:725;-0,0843;0,0365;0,0483;56,33834181;37,52294626;0,00000000;
00:45:03:729;0,0112;-0,0263;0,0108;56,33834181;37,52294626;0,00000000;
00:45:03:733;0,0112;-0,0263;0,0108;56,33834181;37,52294626;0,00000000;
00:45:03:734;-0,0964;0,0445;-0,1713;56,33834181;37,52294626;0,00000000;
00:45:03:741;-0,1268;0,1459;-0,1573;56,33834181;37,52294626;0,00000000;
00:45:03:744;-0,1268;0,1459;-0,1573;56,33834181;37,52294626;0,00000000;
00:45:03:745;-0,0000;0,1066;-0,0819;56,33834181;37,52294626;0,00000000;
00:45:03:749;0,0612;0,0936;-0,0283;56,33834181;37,52294626;0,00000000;
00:45:03:755;0,0072;0,0807;-0,0109;56,33834181;37,52294626;0,00000000;
00:45:03:760;0,0437;0,0750;0,0064;56,33834181;37,52294626;0,00000000;
00:45:03:763;0,0228;0,0788;-0,0665;56,33834181;37,52294626;0,00000000;
00:45:03:769;-0,1123;0,2300;-0,0796;56,33834181;37,52294626;0,00000000;
00:45:03:775;-0,2754;0,3799;-0,0405;56,33834181;37,52294626;0,00000000;
00:45:03:778;-0,3724;0,4884;-0,0351;56,33834181;37,52294626;0,00000000;
00:45:03:783;-0,5041;0,4442;-0,0467;56,33834181;37,52294626;0,00000000;
00:45:03:791;-0,6487;0,4054;-0,1108;56,33834181;37,52294626;0,00000000;
00:45:03:794;-0,6298;0,3961;-0,1631;56,33834181;37,52294626;0,00000000;
00:45:03:798;-0,6298;0,3961;-0,1631;56,33834181;37,52294626;0,00000000;
00:45:03:800;-0,5506;0,3590;-0,2130;56,33834181;37,52294626;0,00000000;
00:45:03:807;-0,5301;0,3231;-0,2440;56,33834181;37,52294626;0,00000000;
00:45:03:810;-0,5301;0,3231;-0,2440;56,33834181;37,52294626;0,00000000;
00:45:03:813;-0,5272;0,2997;-0,2679;56,33834181;37,52294626;0,00000000;
00:45:03:814;-0,4724;0,2816;-0,2325;56,33834181;37,52294626;0,00000000;
00:45:03:820;-0,4159;0,2757;-0,2140;56,33834181;37,52294626;0,00000000;
00:45:03:823;-0,4072;0,2839;-0,1739;56,33834181;37,52294626;0,00000000;
00:45:03:830;-0,2868;0,2083;-0,1005;56,33834181;37,52294626;0,00000000;
00:45:03:836;-0,1533;0,1587;-0,0698;56,33834181;37,52294626;0,00000000;
00:45:03:844;-0,0846;0,0709;-0,0483;56,33834181;37,52294626;0,00000000;
00:45:03:846;-0,0581;-0,0290;0,0094;56,33834181;37,52294626;0,00000000;
00:45:03:850;-0,1664;-0,0652;0,0273;56,33834181;37,52294626;0,00000000;
00:45:03:857;-0,3465;-0,1654;0,0153;56,33834181;37,52294626;0,00000000;
00:45:03:858;-0,4693;-0,1544;0,0808;56,33834181;37,52294626;0,00000000;
00:45:03:864;-0,4693;-0,1544;0,0808;56,33834181;37,52294626;0,00000000;
00:45:03:866;-0,5574;-0,1475;0,0660;56,33834181;37,52294626;0,00000000;
00:45:03:872;-0,5560;-0,0368;0,1121;56,33834181;37,52294626;0,00000000;
00:45:03:874;-0,5560;-0,0368;0,1121;56,33834181;37,52294626;0,00000000;
00:45:03:874;-0,5521;-0,0283;0,1351;56,33834181;37,52294626;0,00000000;
00:45:03:879;-0,5362;-0,0328;0,0656;56,33834181;37,52294626;0,00000000;
00:45:03:883;-0,4389;-0,0548;0,0326;56,33834181;37,52294626;0,00000000;
00:45:03:888;-0,3690;-0,0317;-0,0000;56,33834181;37,52294626;0,00000000;
00:45:03:893;-0,2648;-0,0538;-0,0398;56,33834181;37,52294626;0,00000000;
00:45:03:898;-0,1785;-0,0922;-0,0868;56,33834181;37,52294626;0,00000000;
00:45:03:903;-0,1146;-0,1039;-0,0645;56,33834181;37,52294626;0,00000000;
00:45:03:908;-0,0323;-0,1150;-0,0281;56,33834181;37,52294626;0,00000000;
00:45:03:913;-0,0052;-0,1734;0,0010;56,33834181;37,52294626;0,00000000;
00:45:03:921;0,0478;-0,1910;0,0780;56,33834181;37,52294626;0,00000000;
00:45:03:923;0,1228;-0,2373;0,1718;56,33834181;37,52294626;0,00000000;
00:45:03:928;0,1228;-0,2373;0,1718;56,33834181;37,52294626;0,00000000;
00:45:03:930;0,1389;-0,2505;0,1919;56,33834181;37,52294626;0,00000000;
00:45:03:936;0,1901;-0,2881;0,1671;56,33834181;37,52294626;0,00000000;
00:45:03:941;0,1901;-0,2881;0,1671;56,33834181;37,52294626;0,00000000;
00:45:03:943;0,2448;-0,3483;0,1623;56,33834181;37,52294626;0,00000000;
00:45:03:944;0,3509;-0,3690;0,1920;56,33834181;37,52294626;0,00000000;
00:45:03:949;0,4218;-0,3861;0,2393;56,33834181;37,52294626;0,00000000;
00:45:03:957;0,4244;-0,4383;0,2805;56,33834181;37,52294626;0,00000000;
00:45:03:959;0,5145;-0,4656;0,3276;56,33834181;37,52294626;0,00000000;
00:45:03:964;0,5822;-0,4801;0,3734;56,33834181;37,52294626;0,00000000;
00:45:03:972;0,6536;-0,5011;0,3917;56,33834181;37,52294626;0,00000000;
00:45:03:976;0,7093;-0,4805;0,3512;56,33834181;37,52294626;0,00000000;
00:45:03:979;0,7279;-0,4229;0,2567;56,33834181;37,52294626;0,00000000;
00:45:03:987;0,8381;-0,3064;0,0314;56,33834181;37,52294626;0,00000000;
00:45:03:992;0,8733;-0,2689;-0,4415;56,33834181;37,52294626;0,00000000;
00:45:03:994;0,7679;-0,2996;-0,7145;56,33834181;37,52294626;0,00000000;
00:45:03:996;0,7679;-0,2996;-0,7145;56,33834181;37,52294626;0,00000000;
00:45:03:999;0,6917;-0,2428;-0,5799;56,33834181;37,52294626;0,00000000;
00:45:04:006;0,6917;-0,2428;-0,5799;56,33834181;37,52294626;0,00000000;
00:45:04:007;0,7884;-0,1272;-0,4862;56,33834181;37,52294626;0,00000000;
00:45:04:009;0,9557;0,0025;-0,2741;56,33834181;37,52294626;0,00000000;
00:45:04:014;0,9844;0,0447;-0,0245;56,33834181;37,52294626;0,00000000;
00:45:04:021;0,9934;-0,0557;0,0713;56,33834181;37,52294626;0,00000000;
00:45:04:025;1,0445;-0,2489;0,0759;56,33834181;37,52294626;0,00000000;
00:45:04:029;1,1166;-0,4317;0,0969;56,33834181;37,52294626;0,00000000;
00:45:04:036;1,1044;-0,5017;0,1129;56,33834181;37,52294626;0,00000000;
00:45:04:041;1,0847;-0,4951;0,1240;56,33834181;37,52294626;0,00000000;
00:45:04:045;1,0598;-0,4767;0,1614;56,33834181;37,52294626;0,00000000;
00:45:04:049;0,9508;-0,5087;0,1630;56,33834181;37,52294626;0,00000000;
00:45:04:054;0,8769;-0,4812;0,1264;56,33834181;37,52294626;0,00000000;
00:45:04:060;0,8769;-0,4812;0,1264;56,33834181;37,52294626;0,00000000;
00:45:04:061;0,7131;-0,5928;0,1595;56,33834181;37,52294626;0,00000000;
00:45:04:064;0,5696;-0,6596;0,1212;56,33834181;37,52294626;0,00000000;
00:45:04:070;0,5696;-0,6596;0,1212;56,33834181;37,52294626;0,00000000;
00:45:04:071;0,5515;-0,6576;0,1958;56,33834181;37,52294626;0,00000000;
00:45:04:076;0,5872;-0,6398;0,2828;56,33834181;37,52294626;0,00000000;
00:45:04:079;0,6242;-0,6085;0,3653;56,33834181;37,52294626;0,00000000;
00:45:04:086;0,6912;-0,6308;0,4722;56,33834181;37,52294626;0,00000000;
00:45:04:090;0,7113;-0,6712;0,5319;56,33834181;37,52294626;0,00000000;
00:45:04:094;0,6886;-0,7704;0,6380;56,33834181;37,52294626;0,00000000;
00:45:04:100;0,7971;-0,8855;0,8647;56,33834181;37,52294626;0,00000000;
00:45:04:107;0,8962;-0,9548;1,0734;56,33834181;37,52294626;0,00000000;
00:45:04:111;1,0051;-1,0412;1,2455;56,33834181;37,52294626;0,00000000;
00:45:04:114;1,0785;-1,1186;1,3356;56,33834181;37,52294626;0,00000000;
00:45:04:120;1,1788;-1,1085;1,3945;56,33834181;37,52294626;0,00000000;
00:45:04:125;1,1788;-1,1085;1,3945;56,33834181;37,52294626;0,00000000;
00:45:04:126;1,1626;-1,1621;1,4009;56,33834181;37,52294626;0,00000000;
00:45:04:130;1,0801;-1,2171;1,3572;56,33834181;37,52294626;0,00000000;
00:45:04:137;1,0801;-1,2171;1,3572;56,33834181;37,52294626;0,00000000;
00:45:04:138;1,0223;-1,2065;1,1728;56,33834181;37,52294626;0,00000000;
00:45:04:142;0,9921;-1,1872;1,0433;56,33834181;37,52294626;0,00000000;
00:45:04:145;0,8799;-1,1133;0,9206;56,33834181;37,52294626;0,00000000;
00:45:04:150;0,7312;-1,0587;0,7209;56,33834181;37,52294626;0,00000000;
00:45:04:155;0,6394;-0,9261;0,4862;56,33834181;37,52294626;0,00000000;
00:45:04:160;0,6293;-0,7909;0,2631;56,33834181;37,52294626;0,00000000;
00:45:04:164;0,6588;-0,5787;0,1216;56,33834181;37,52294626;0,00000000;
00:45:04:171;0,7144;-0,3637;0,1165;56,33834181;37,52294626;0,00000000;
00:45:04:175;0,6527;-0,2505;0,0947;56,33834181;37,52294626;0,00000000;
00:45:04:180;0,5113;-0,2801;0,0349;56,33834181;37,52294626;0,00000000;
00:45:04:186;0,5577;-0,2493;0,0736;56,33834181;37,52294626;0,00000000;
00:45:04:191;0,5577;-0,2493;0,0736;56,33834181;37,52294626;0,00000000;
00:45:04:192;0,6533;-0,2494;0,1728;56,33834181;37,52294626;0,00000000;
00:45:04:195;0,7649;-0,2047;0,3662;56,33834181;37,52294626;0,00000000;
00:45:04:200;0,7649;-0,2047;0,3662;56,33834181;37,52294626;0,00000000;
00:45:04:201;0,7901;-0,0735;0,6548;56,33834181;37,52294626;0,00000000;
00:45:04:206;0,8055;0,1359;0,8622;56,33834181;37,52294626;0,00000000;
00:45:04:211;0,6963;0,1493;0,9395;56,33834181;37,52294626;0,00000000;
00:45:04:215;0,6836;-0,0598;0,8224;56,33834181;37,52294626;0,00000000;
00:45:04:222;0,9500;-0,1234;0,7697;56,33834181;37,52294626;0,00000000;
00:45:04:226;1,1301;-0,0844;0,7666;56,33834181;37,52294626;0,00000000;
00:45:04:230;1,0610;-0,0774;0,6726;56,33834181;37,52294626;0,00000000;
00:45:04:235;0,8564;-0,1257;0,5497;56,33834181;37,52294626;0,00000000;
00:45:04:241;0,6564;-0,2500;0,4933;56,33834181;37,52294626;0,00000000;
00:45:04:245;0,6293;-0,2982;0,4877;56,33834181;37,52294626;0,00000000;
00:45:04:252;0,7774;0,0674;0,3098;56,33834181;37,52294626;0,00000000;
00:45:04:257;0,6541;-0,3719;0,0469;56,33834181;37,52294626;0,00000000;
00:45:04:259;0,6541;-0,3719;0,0469;56,33834181;37,52294626;0,00000000;
00:45:04:261;0,2763;-1,1110;-0,2430;56,33834181;37,52294626;0,00000000;
00:45:04:266;0,2763;-1,1110;-0,2430;56,33834181;37,52294626;0,00000000;
00:45:04:267;0,0468;-0,8227;-0,5332;56,33834181;37,52294626;0,00000000;
00:45:04:272;0,1065;-0,3603;-0,4977;56,33834181;37,52294626;0,00000000;
00:45:04:275;0,2095;-0,1090;-0,3070;56,33834181;37,52294626;0,00000000;
00:45:04:280;0,3136;0,2113;-0,2983;56,33834181;37,52294626;0,00000000;
00:45:04:285;0,3867;0,4507;-0,4267;56,33834181;37,52294626;0,00000000;
00:45:04:291;0,3317;0,5860;-0,5943;56,33834181;37,52294626;0,00000000;
00:45:04:296;0,1402;0,6484;-0,6118;56,33834181;37,52294626;0,00000000;
00:45:04:302;-0,1352;0,4724;-0,6082;56,33834181;37,52294626;0,00000000;
00:45:04:307;-0,4638;0,2740;-0,7679;56,33834181;37,52294626;0,00000000;
00:45:04:311;-0,7062;0,0723;-0,9665;56,33834181;37,52294626;0,00000000;
00:45:04:316;-0,7121;-0,0563;-1,0914;56,33834181;37,52294626;0,00000000;
00:45:04:324;-0,7121;-0,0563;-1,0914;56,33834181;37,52294626;0,00000000;
00:45:04:325;-0,6872;-0,1719;-1,1066;56,33834181;37,52294626;0,00000000;
00:45:04:329;-0,6683;-0,1932;-1,1055;56,33834181;37,52294626;0,00000000;
00:45:04:336;-0,6683;-0,1932;-1,1055;56,33834181;37,52294626;0,00000000;
00:45:04:337;-0,6201;-0,1514;-0,9400;56,33834181;37,52294626;0,00000000;
00:45:04:339;-0,2509;-0,1210;-0,5117;56,33834181;37,52294626;0,00000000;
00:45:04:345;-0,0689;-0,1240;-0,2368;56,33834181;37,52294626;0,00000000;
00:45:04:347;-0,0351;-0,1202;-0,1051;56,33834181;37,52294626;0,00000000;
00:45:04:352;-0,3214;-0,1046;-0,1213;56,33834181;37,52294626;0,00000000;
00:45:04:356;-0,5634;-0,0533;-0,0965;56,33834181;37,52294626;0,00000000;
00:45:04:362;-0,8017;0,0360;-0,0522;56,33834181;37,52294626;0,00000000;
00:45:04:366;-1,1316;0,1155;-0,0412;56,33834181;37,52294626;0,00000000;
00:45:04:372;-1,3453;0,2403;0,0777;56,33834181;37,52294626;0,00000000;
00:45:04:376;-1,4826;0,5512;0,1109;56,33834181;37,52294626;0,00000000;
00:45:04:381;-1,5683;0,9237;0,0204;56,33834181;37,52294626;0,00000000;
00:45:04:386;-1,5683;0,9237;0,0204;56,33834181;37,52294626;0,00000000;
00:45:04:388;-1,7227;1,2763;0,0429;56,33834181;37,52294626;0,00000000;
00:45:04:393;-1,6757;1,4687;-0,1139;56,33834181;37,52294626;0,00000000;
00:45:04:396;-1,6757;1,4687;-0,1139;56,33834181;37,52294626;0,00000000;
00:45:04:397;-1,3440;1,2597;-0,4093;56,33834181;37,52294626;0,00000000;
00:45:04:403;-0,8763;0,8397;-0,6384;56,33834181;37,52294626;0,00000000;
00:45:04:408;-0,4184;0,5298;-0,7347;56,33834181;37,52294626;0,00000000;
00:45:04:411;0,0479;0,4950;-0,7203;56,33834181;37,52294626;0,00000000;
00:45:04:418;0,5170;0,6705;-0,4757;56,33834181;37,52294626;0,00000000;
00:45:04:424;1,0711;1,0838;-0,1107;56,33834181;37,52294626;0,00000000;
00:45:04:427;1,5700;1,4324;0,1603;56,33834181;37,52294626;0,00000000;
00:45:04:432;2,3227;1,6823;0,5030;56,33834181;37,52294626;0,00000000;
00:45:04:438;3,1963;2,1100;0,8439;56,33834181;37,52294626;0,00000000;
00:45:04:442;3,1951;1,8850;1,0304;56,33834181;37,52294626;0,00000000;
00:45:04:446;3,1261;1,5459;1,0031;56,33834181;37,52294626;0,00000000;
00:45:04:454;3,1261;1,5459;1,0031;56,33834181;37,52294626;0,00000000;
00:45:04:455;3,1493;1,3299;0,9963;56,33834181;37,52294626;0,00000000;
00:45:04:459;3,1760;1,1701;1,0361;56,33834181;37,52294626;0,00000000;
00:45:04:463;3,1760;1,1701;1,0361;56,33834181;37,52294626;0,00000000;
00:45:04:464;3,1059;1,0232;1,0963;56,33834181;37,52294626;0,00000000;
00:45:04:466;3,0658;1,0207;1,2917;56,33834181;37,52294626;0,00000000;
00:45:04:472;3,0028;1,0688;1,4074;56,33834181;37,52294626;0,00000000;
00:45:04:478;2,9121;1,1172;1,5152;56,33834181;37,52294626;0,00000000;
00:45:04:482;2,8415;1,1682;1,5340;56,33834181;37,52294626;0,00000000;
00:45:04:488;2,7213;1,2456;1,5167;56,33834181;37,52294626;0,00000000;
00:45:04:492;2,6301;1,2925;1,5085;56,33834181;37,52294626;0,00000000;
00:45:04:497;2,4672;1,2971;1,4973;56,33834181;37,52294626;0,00000000;
00:45:04:503;2,3639;1,2621;1,4446;56,33834181;37,52294626;0,00000000;
00:45:04:508;2,2744;1,1780;1,3865;56,33834181;37,52294626;0,00000000;
00:45:04:512;2,2054;1,0858;1,3467;56,33834181;37,52294626;0,00000000;
00:45:04:517;2,2054;1,0858;1,3467;56,33834181;37,52294626;0,00000000;
00:45:04:518;2,1830;0,9564;1,2515;56,33834181;37,52294626;0,00000000;
00:45:04:524;2,1234;0,8254;1,1350;56,33834181;37,52294626;0,00000000;
00:45:04:527;2,1234;0,8254;1,1350;56,33834181;37,52294626;0,00000000;
00:45:04:528;2,0163;0,6647;1,0444;56,33834181;37,52294626;0,00000000;
00:45:04:532;1,8562;0,5174;0,9129;56,33834181;37,52294626;0,00000000;
00:45:04:537;1,6501;0,3594;0,8148;56,33834181;37,52294626;0,00000000;
00:45:04:543;1,4532;0,2339;0,7359;56,33834181;37,52294626;0,00000000;
00:45:04:547;1,2917;0,2251;0,6682;56,33834181;37,52294626;0,00000000;
00:45:04:554;1,1800;0,1946;0,5538;56,33834181;37,52294626;0,00000000;
00:45:04:559;1,0490;0,1716;0,4235;56,33834181;37,52294626;0,00000000;
00:45:04:562;0,9374;0,1351;0,2381;56,33834181;37,52294626;0,00000000;
00:45:04:569;0,8462;0,0686;-0,1939;56,33834181;37,52294626;0,00000000;
00:45:04:574;0,8280;0,0019;-0,7827;56,33834181;37,52294626;0,00000000;
00:45:04:577;0,8113;-0,0094;-1,4881;56,33834181;37,52294626;0,00000000;
00:45:04:582;0,8113;-0,0094;-1,4881;56,33834181;37,52294626;0,00000000;
00:45:04:583;0,8102;0,0237;-2,1297;56,33834181;37,52294626;0,00000000;
00:45:04:592;0,7076;0,0899;-2,7663;56,33834181;37,52294626;0,00000000;
00:45:04:595;0,6250;0,1471;-3,3299;56,33834181;37,52294626;0,00000000;
00:45:04:597;0,6250;0,1471;-3,3299;56,33834181;37,52294626;0,00000000;
00:45:04:598;0,4662;0,0622;-3,7642;56,33834181;37,52294626;0,00000000;
00:45:04:605;-0,0139;-0,4390;-3,8577;56,33834181;37,52294626;0,00000000;
00:45:04:610;-0,6029;-0,3252;-3,6423;56,33834181;37,52294626;0,00000000;
00:45:04:614;-0,9334;-0,0687;-3,5602;56,33834181;37,52294626;0,00000000;
00:45:04:618;-1,2553;-0,1193;-3,5440;56,33834181;37,52294626;0,00000000;
00:45:04:623;-1,5121;-0,3687;-3,6562;56,33834181;37,52294626;0,00000000;
00:45:04:630;-1,6082;-0,7371;-3,7325;56,33834181;37,52294626;0,00000000;
00:45:04:633;-1,5392;-1,1542;-3,7811;56,33834181;37,52294626;0,00000000;
00:45:04:640;-1,3929;-1,5264;-3,7397;56,33834181;37,52294626;0,00000000;
00:45:04:643;-1,2982;-1,7859;-3,5305;56,33834181;37,52294626;0,00000000;
00:45:04:647;-1,2982;-1,7859;-3,5305;56,33834181;37,52294626;0,00000000;
00:45:04:648;-1,1983;-2,0598;-3,3226;56,33834181;37,52294626;0,00000000;
00:45:04:655;-1,1535;-2,2409;-3,1844;56,33834181;37,52294626;0,00000000;
00:45:04:660;-1,0922;-2,3675;-3,0407;56,33834181;37,52294626;0,00000000;
00:45:04:662;-1,0922;-2,3675;-3,0407;56,33834181;37,52294626;0,00000000;
00:45:04:664;-1,0072;-2,5292;-3,0284;56,33834181;37,52294626;0,00000000;
00:45:04:669;-0,9762;-2,7223;-3,1191;56,33834181;37,52294626;0,00000000;
00:45:04:675;-1,0887;-2,8992;-3,3595;56,33834181;37,52294626;0,00000000;
00:45:04:678;-1,3045;-3,0424;-3,8209;56,33834181;37,52294626;0,00000000;
00:45:04:683;-1,4553;-2,9489;-3,9523;56,33834181;37,52294626;0,00000000;
00:45:04:688;-1,6566;-3,0516;-3,9227;56,33834181;37,52294626;0,00000000;
00:45:04:693;-1,6510;-2,6492;-3,4854;56,33834181;37,52294626;0,00000000;
00:45:04:698;-1,5249;-1,8497;-2,5899;56,33834181;37,52294626;0,00000000;
00:45:04:704;-1,6088;-1,3003;-1,3759;56,33834181;37,52294626;0,00000000;
00:45:04:709;-1,6433;-0,8406;-0,0402;56,33834181;37,52294626;0,00000000;
00:45:04:714;-1,6433;-0,8406;-0,0402;56,33834181;37,52294626;0,00000000;
00:45:04:715;-1,5451;-0,6741;1,0130;56,33834181;37,52294626;0,00000000;
00:45:04:720;-1,3819;-0,8734;1,6713;56,33834181;37,52294626;0,00000000;
00:45:04:724;-1,3819;-0,8734;1,6713;56,33834181;37,52294626;0,00000000;
00:45:04:726;-1,2515;-1,2999;1,8510;56,33834181;37,52294626;0,00000000;
00:45:04:730;-1,1859;-1,7714;1,9417;56,33834181;37,52294626;0,00000000;
00:45:04:733;-1,2760;-2,2557;2,0085;56,33834181;37,52294626;0,00000000;
00:45:04:739;-1,3774;-2,4887;2,1376;56,33834181;37,52294626;0,00000000;
00:45:04:744;-1,3489;-2,3266;2,3179;56,33834181;37,52294626;0,00000000;
00:45:04:749;-1,2070;-1,9208;2,5228;56,33834181;37,52294626;0,00000000;
00:45:04:754;-1,0204;-1,5315;2,7320;56,33834181;37,52294626;0,00000000;
00:45:04:758;-0,7285;-1,1731;2,8828;56,33834181;37,52294626;0,00000000;
00:45:04:763;-0,4162;-0,8472;2,9702;56,33834181;37,52294626;0,00000000;
00:45:04:771;-0,0464;-0,6159;2,9647;56,33834181;37,52294626;0,00000000;
00:45:04:775;0,2330;-0,5436;3,0045;56,33834181;37,52294626;0,00000000;
00:45:04:778;0,2330;-0,5436;3,0045;56,33834181;37,52294626;0,00000000;
00:45:04:779;0,4356;-0,5737;3,1255;56,33834181;37,52294626;0,00000000;
00:45:04:783;0,5071;-0,7719;3,1939;56,33834181;37,52294626;0,00000000;
00:45:04:788;0,5071;-0,7719;3,1939;56,33834181;37,52294626;0,00000000;
00:45:04:790;0,6453;-0,9246;3,3435;56,33834181;37,52294626;0,00000000;
00:45:04:793;0,8709;-0,9296;3,6243;56,33834181;37,52294626;0,00000000;
00:45:04:798;0,9775;-0,8755;3,8687;56,33834181;37,52294626;0,00000000;
00:45:04:803;0,9299;-0,6614;3,9783;56,33834181;37,52294626;0,00000000;
00:45:04:808;0,7741;-0,5382;3,9341;56,33834181;37,52294626;0,00000000;
00:45:04:813;0,5867;-0,4835;3,7980;56,33834181;37,52294626;0,00000000;
00:45:04:820;0,4947;-0,4739;3,4954;56,33834181;37,52294626;0,00000000;
00:45:04:825;0,4596;-0,5545;3,1173;56,33834181;37,52294626;0,00000000;
00:45:04:828;0,4199;-0,6541;2,7758;56,33834181;37,52294626;0,00000000;
00:45:04:833;0,3191;-0,7318;2,4360;56,33834181;37,52294626;0,00000000;
00:45:04:838;0,2624;-0,7848;2,1456;56,33834181;37,52294626;0,00000000;
00:45:04:844;0,2624;-0,7848;2,1456;56,33834181;37,52294626;0,00000000;
00:45:04:844;0,1745;-0,7479;1,8307;56,33834181;37,52294626;0,00000000;
00:45:04:849;0,0786;-0,7027;1,5765;56,33834181;37,52294626;0,00000000;
00:45:04:855;-0,0360;-0,6383;1,3527;56,33834181;37,52294626;0,00000000;
00:45:04:857;-0,0360;-0,6383;1,3527;56,33834181;37,52294626;0,00000000;
00:45:04:859;-0,1271;-0,6642;1,1723;56,33834181;37,52294626;0,00000000;
00:45:04:863;-0,2258;-0,6836;0,9812;56,33834181;37,52294626;0,00000000;
00:45:04:871;-0,3651;-0,7350;0,7328;56,33834181;37,52294626;0,00000000;
00:45:04:876;-0,4354;-0,7724;0,4675;56,33834181;37,52294626;0,00000000;
00:45:04:879;-0,4442;-0,7968;0,2316;56,33834181;37,52294626;0,00000000;
00:45:04:885;-0,4804;-0,7829;0,1200;56,33834181;37,52294626;0,00000000;
00:45:04:889;-0,4824;-0,7353;0,0129;56,33834181;37,52294626;0,00000000;
00:45:04:895;-0,4534;-0,7560;0,0533;56,33834181;37,52294626;0,00000000;
00:45:04:899;-0,3702;-0,7523;0,1100;56,33834181;37,52294626;0,00000000;
00:45:04:904;-0,3457;-0,7664;0,1539;56,33834181;37,52294626;0,00000000;
00:45:04:908;-0,3457;-0,7664;0,1539;56,33834181;37,52294626;0,00000000;
00:45:04:909;-0,2607;-0,9515;-0,0851;56,33834181;37,52294626;0,00000000;
00:45:04:914;-0,0733;-1,2105;-0,5023;56,33834181;37,52294626;0,00000000;
00:45:04:919;-0,0733;-1,2105;-0,5023;56,33834181;37,52294626;0,00000000;
00:45:04:920;0,1486;-1,3360;-0,7690;56,33834181;37,52294626;0,00000000;
00:45:04:924;0,1647;-1,2629;-0,7954;56,33834181;37,52294626;0,00000000;
00:45:04:929;0,1113;-1,0107;-0,6992;56,33834181;37,52294626;0,00000000;
00:45:04:936;0,0344;-0,7226;-0,6490;56,33834181;37,52294626;0,00000000;
00:45:04:940;-0,1522;-0,5365;-0,7798;56,33834181;37,52294626;0,00000000;
00:45:04:944;-0,2921;-0,4066;-1,0203;56,33834181;37,52294626;0,00000000;
00:45:04:949;-0,4309;-0,3778;-1,3303;56,33834181;37,52294626;0,00000000;
00:45:04:957;-0,5333;-0,4392;-1,7445;56,33834181;37,52294626;0,00000000;
00:45:04:959;-0,6149;-0,4723;-2,1516;56,33834181;37,52294626;0,00000000;
00:45:04:964;-0,7809;-0,4233;-2,4719;56,33834181;37,52294626;0,00000000;
00:45:04:969;-0,8642;-0,3875;-2,5006;56,33834181;37,52294626;0,00000000;
00:45:04:975;-0,8642;-0,3875;-2,5006;56,33834181;37,52294626;0,00000000;
00:45:04:976;-0,8180;-0,4283;-2,2250;56,33834181;37,52294626;0,00000000;
00:45:04:979;-0,7403;-0,4676;-1,7955;56,33834181;37,52294626;0,00000000;
00:45:04:987;-0,8721;-0,3658;-1,4046;56,33834181;37,52294626;0,00000000;
00:45:04:989;-0,8721;-0,3658;-1,4046;56,33834181;37,52294626;0,00000000;
00:45:04:990;-1,0048;-0,2651;-1,1283;56,33834181;37,52294626;0,00000000;
00:45:04:994;-1,1461;-0,2262;-0,7429;56,33834181;37,52294626;0,00000000;
00:45:04:999;-1,3057;-0,2165;-0,3576;56,33834181;37,52294626;0,00000000;
00:45:05:005;-1,4096;-0,1573;-0,0368;56,33834181;37,52294626;0,00000000;
00:45:05:009;-1,5344;-0,1162;0,1892;56,33834181;37,52294626;0,00000000;
00:45:05:014;-1,5580;-0,1726;0,3042;56,33834181;37,52294626;0,00000000;
00:45:05:020;-1,4322;-0,4195;0,2915;56,33834181;37,52294626;0,00000000;
00:45:05:025;-1,2258;-0,6895;0,2995;56,33834181;37,52294626;0,00000000;
00:45:05:029;-1,1612;-0,7815;0,2847;56,33834181;37,52294626;0,00000000;
00:45:05:036;-1,1910;-0,7218;0,2664;56,33834181;37,52294626;0,00000000;
00:45:05:041;-1,2920;-0,5966;0,2326;56,33834181;37,52294626;0,00000000;
00:45:05:042;-1,2920;-0,5966;0,2326;56,33834181;37,52294626;0,00000000;
00:45:05:045;-1,3355;-0,5138;0,1166;56,33834181;37,52294626;0,00000000;
00:45:05:050;-1,1859;-0,5447;-0,0289;56,33834181;37,52294626;0,00000000;
00:45:05:051;-1,1859;-0,5447;-0,0289;56,33834181;37,52294626;0,00000000;
00:45:05:058;-0,9778;-0,6125;-0,0367;56,33834181;37,52294626;0,00000000;
00:45:05:061;-0,8999;-0,5595;0,0739;56,33834181;37,52294626;0,00000000;
00:45:05:064;-0,8752;-0,4674;0,2959;56,33834181;37,52294626;0,00000000;
00:45:05:070;-0,8453;-0,3678;0,4070;56,33834181;37,52294626;0,00000000;
00:45:05:075;-0,8267;-0,3784;0,4176;56,33834181;37,52294626;0,00000000;
00:45:05:080;-0,7579;-0,4684;0,3330;56,33834181;37,52294626;0,00000000;
00:45:05:086;-0,7135;-0,5632;0,1819;56,33834181;37,52294626;0,00000000;
00:45:05:090;-0,6442;-0,6584;-0,0424;56,33834181;37,52294626;0,00000000;
00:45:05:095;-0,3806;-0,8179;-0,3187;56,33834181;37,52294626;0,00000000;
00:45:05:100;-0,3703;-0,8142;-0,4201;56,33834181;37,52294626;0,00000000;
00:45:05:107;-0,3703;-0,8142;-0,4201;56,33834181;37,52294626;0,00000000;
00:45:05:109;-0,3421;-0,9367;-0,6198;56,33834181;37,52294626;0,00000000;
00:45:05:111;-0,3191;-1,0127;-0,7891;56,33834181;37,52294626;0,00000000;
00:45:05:115;-0,3191;-1,0127;-0,7891;56,33834181;37,52294626;0,00000000;
00:45:05:117;-0,3220;-1,0134;-0,8471;56,33834181;37,52294626;0,00000000;
00:45:05:123;-0,2213;-1,0200;-0,8229;56,33834181;37,52294626;0,00000000;
00:45:05:128;-0,1048;-0,9728;-0,8028;56,33834181;37,52294626;0,00000000;
00:45:05:131;-0,0289;-0,9411;-0,7464;56,33834181;37,52294626;0,00000000;
00:45:05:136;0,0888;-0,8870;-0,7446;56,33834181;37,52294626;0,00000000;
00:45:05:141;0,2580;-0,8249;-0,7566;56,33834181;37,52294626;0,00000000;
00:45:05:145;0,4555;-0,7502;-0,8348;56,33834181;37,52294626;0,00000000;
00:45:05:150;0,6316;-0,6819;-0,8336;56,33834181;37,52294626;0,00000000;
00:45:05:156;0,6721;-0,6275;-0,7648;56,33834181;37,52294626;0,00000000;
00:45:05:161;0,6433;-0,4912;-0,7240;56,33834181;37,52294626;0,00000000;
00:45:05:166;0,5585;-0,3619;-0,7200;56,33834181;37,52294626;0,00000000;
00:45:05:172;0,2366;-0,1897;-0,5775;56,33834181;37,52294626;0,00000000;
00:45:05:175;0,2366;-0,1897;-0,5775;56,33834181;37,52294626;0,00000000;
00:45:05:176;-0,1088;-0,0512;-0,4326;56,33834181;37,52294626;0,00000000;
00:45:05:181;-0,1088;-0,0512;-0,4326;56,33834181;37,52294626;0,00000000;
00:45:05:182;-0,3195;0,0844;-0,3253;56,33834181;37,52294626;0,00000000;
00:45:05:187;-0,5184;0,1045;-0,3005;56,33834181;37,52294626;0,00000000;
00:45:05:191;-0,6390;0,0928;-0,2479;56,33834181;37,52294626;0,00000000;
00:45:05:196;-0,8010;0,0420;-0,1746;56,33834181;37,52294626;0,00000000;
00:45:05:200;-0,9655;0,0001;-0,2173;56,33834181;37,52294626;0,00000000;
00:45:05:207;-1,0197;-0,0425;-0,2921;56,33834181;37,52294626;0,00000000;
00:45:05:212;-0,9248;-0,1456;-0,3873;56,33834181;37,52294626;0,00000000;
00:45:05:216;-0,9102;-0,1488;-0,3594;56,33834181;37,52294626;0,00000000;
00:45:05:224;-0,8942;-0,1286;-0,4360;56,33834181;37,52294626;0,00000000;
00:45:05:229;-0,6828;-0,2092;-0,4068;56,33834181;37,52294626;0,00000000;
00:45:05:231;-0,6018;-0,2063;-0,3173;56,33834181;37,52294626;0,00000000;
00:45:05:239;-0,6322;-0,1226;-0,2559;56,33834181;37,52294626;0,00000000;
00:45:05:241;-0,6322;-0,1226;-0,2559;56,33834181;37,52294626;0,00000000;
00:45:05:245;-0,5853;-0,0490;-0,1819;56,33834181;37,52294626;0,00000000;
00:45:05:247;-0,5853;-0,0490;-0,1819;56,33834181;37,52294626;0,00000000;
00:45:05:248;-0,5260;-0,0645;-0,1190;56,33834181;37,52294626;0,00000000;
00:45:05:255;-0,4037;-0,1141;-0,1725;56,33834181;37,52294626;0,00000000;
00:45:05:259;-0,1898;-0,1664;-0,2443;56,33834181;37,52294626;0,00000000;
00:45:05:260;-0,0638;-0,1904;-0,3442;56,33834181;37,52294626;0,00000000;
00:45:05:266;-0,0536;-0,2003;-0,4315;56,33834181;37,52294626;0,00000000;
00:45:05:274;-0,0774;-0,1744;-0,5113;56,33834181;37,52294626;0,00000000;
00:45:05:278;-0,0796;-0,1196;-0,5960;56,33834181;37,52294626;0,00000000;
00:45:05:282;-0,1391;-0,0861;-0,5830;56,33834181;37,52294626;0,00000000;
00:45:05:287;-0,1891;0,0485;-0,5348;56,33834181;37,52294626;0,00000000;
00:45:05:292;-0,2034;0,1574;-0,4039;56,33834181;37,52294626;0,00000000;
00:45:05:296;-0,2083;0,2790;-0,2597;56,33834181;37,52294626;0,00000000;
00:45:05:303;-0,2083;0,2790;-0,2597;56,33834181;37,52294626;0,00000000;
00:45:05:305;-0,2801;0,2861;-0,1067;56,33834181;37,52294626;0,00000000;
00:45:05:309;-0,2939;0,3200;0,0672;56,33834181;37,52294626;0,00000000;
00:45:05:312;-0,2939;0,3200;0,0672;56,33834181;37,52294626;0,00000000;
00:45:05:315;-0,3117;0,3445;0,1447;56,33834181;37,52294626;0,00000000;
00:45:05:318;-0,3143;0,3739;0,3032;56,33834181;37,52294626;0,00000000;
00:45:05:324;-0,3545;0,3623;0,3900;56,33834181;37,52294626;0,00000000;
00:45:05:328;-0,4349;0,3266;0,4076;56,33834181;37,52294626;0,00000000;
00:45:05:334;-0,5082;0,3215;0,5118;56,33834181;37,52294626;0,00000000;
00:45:05:340;-0,5695;0,2824;0,6572;56,33834181;37,52294626;0,00000000;
00:45:05:344;-0,6356;0,2880;0,7555;56,33834181;37,52294626;0,00000000;
00:45:05:351;-0,6805;0,2377;0,8045;56,33834181;37,52294626;0,00000000;
00:45:05:353;-0,6995;0,2341;0,7664;56,33834181;37,52294626;0,00000000;
00:45:05:358;-0,7359;0,2485;0,6389;56,33834181;37,52294626;0,00000000;
00:45:05:361;-0,8381;0,3144;0,4841;56,33834181;37,52294626;0,00000000;
00:45:05:367;-0,8381;0,3144;0,4841;56,33834181;37,52294626;0,00000000;
00:45:05:369;-1,0495;0,4609;0,4167;56,33834181;37,52294626;0,00000000;
00:45:05:372;-1,0760;0,5013;0,3121;56,33834181;37,52294626;0,00000000;
00:45:05:376;-1,0760;0,5013;0,3121;56,33834181;37,52294626;0,00000000;
00:45:05:378;-0,6340;0,2326;0,0030;56,33834181;37,52294626;0,00000000;
00:45:05:382;-0,2121;-0,0260;-0,1262;56,33834181;37,52294626;0,00000000;
00:45:05:388;0,0642;-0,0999;-0,0568;56,33834181;37,52294626;0,00000000;
00:45:05:391;0,2157;-0,0135;-0,0687;56,33834181;37,52294626;0,00000000;
00:45:05:397;0,2486;0,0705;-0,1023;56,33834181;37,52294626;0,00000000;
00:45:05:403;0,2415;0,1399;-0,1525;56,33834181;37,52294626;0,00000000;
00:45:05:407;0,2779;0,2096;-0,1888;56,33834181;37,52294626;0,00000000;
00:45:05:411;0,3195;0,2582;-0,2233;56,33834181;37,52294626;0,00000000;
00:45:05:417;0,3642;0,2742;-0,2779;56,33834181;37,52294626;0,00000000;
00:45:05:422;0,3935;0,2287;-0,3096;56,33834181;37,52294626;0,00000000;
00:45:05:427;0,4507;0,2150;-0,3136;56,33834181;37,52294626;0,00000000;
00:45:05:432;0,4507;0,2150;-0,3136;56,33834181;37,52294626;0,00000000;
00:45:05:433;0,4303;0,2310;-0,3188;56,33834181;37,52294626;0,00000000;
00:45:05:439;0,2964;0,1903;-0,3250;56,33834181;37,52294626;0,00000000;
00:45:05:443;0,2964;0,1903;-0,3250;56,33834181;37,52294626;0,00000000;
00:45:05:445;0,1827;0,1789;-0,3249;56,33834181;37,52294626;0,00000000;
00:45:05:450;0,0742;0,1775;-0,3062;56,33834181;37,52294626;0,00000000;
00:45:05:455;0,0374;0,1143;-0,2831;56,33834181;37,52294626;0,00000000;
00:45:05:461;-0,0166;0,0683;-0,2723;56,33834181;37,52294626;0,00000000;
00:45:05:463;-0,1428;0,0537;-0,2045;56,33834181;37,52294626;0,00000000;
00:45:05:469;-0,2074;0,0967;-0,1846;56,33834181;37,52294626;0,00000000;
00:45:05:474;-0,1987;0,1157;-0,1145;56,33834181;37,52294626;0,00000000;
00:45:05:479;-0,1143;0,1421;-0,0612;56,33834181;37,52294626;0,00000000;
00:45:05:483;-0,0210;0,1253;-0,0317;56,33834181;37,52294626;0,00000000;
00:45:05:489;0,0528;0,1370;0,0146;56,33834181;37,52294626;0,00000000;
00:45:05:494;0,0739;0,1797;0,0205;56,33834181;37,52294626;0,00000000;
00:45:05:497;0,0739;0,1797;0,0205;56,33834181;37,52294626;0,00000000;
00:45:05:498;0,1022;0,1454;0,0029;56,33834181;37,52294626;0,00000000;
00:45:05:504;0,1878;0,1562;-0,0286;56,33834181;37,52294626;0,00000000;
00:45:05:509;0,2878;0,1884;-0,0981;56,33834181;37,52294626;0,00000000;
00:45:05:512;0,2878;0,1884;-0,0981;56,33834181;37,52294626;0,00000000;
00:45:05:513;0,3018;0,2204;-0,1650;56,33834181;37,52294626;0,00000000;
00:45:05:520;0,3351;0,2210;-0,2268;56,33834181;37,52294626;0,00000000;
00:45:05:524;0,3255;0,1881;-0,2884;56,33834181;37,52294626;0,00000000;
00:45:05:529;0,2801;0,1694;-0,3570;56,33834181;37,52294626;0,00000000;
00:45:05:532;0,2704;0,1581;-0,3538;56,33834181;37,52294626;0,00000000;
00:45:05:537;0,2537;0,1682;-0,3148;56,33834181;37,52294626;0,00000000;
00:45:05:542;0,1963;0,1952;-0,2710;56,33834181;37,52294626;0,00000000;
00:45:05:547;0,1723;0,1648;-0,2514;56,33834181;37,52294626;0,00000000;
00:45:05:553;0,1580;0,1250;-0,2200;56,33834181;37,52294626;0,00000000;
00:45:05:558;0,1369;0,1523;-0,2198;56,33834181;37,52294626;0,00000000;
00:45:05:562;0,1369;0,1523;-0,2198;56,33834181;37,52294626;0,00000000;
00:45:05:563;0,2117;0,0959;-0,2101;56,33834181;37,52294626;0,00000000;
00:45:05:571;0,2296;0,0921;-0,1478;56,33834181;37,52294626;0,00000000;
00:45:05:573;0,2296;0,0921;-0,1478;56,33834181;37,52294626;0,00000000;
00:45:05:575;0,1380;0,2366;-0,1096;56,33834181;37,52294626;0,00000000;
00:45:05:579;0,0491;0,2803;-0,1119;56,33834181;37,52294626;0,00000000;
00:45:05:582;0,0227;0,2545;-0,1190;56,33834181;37,52294626;0,00000000;
00:45:05:588;0,0132;0,2049;-0,1690;56,33834181;37,52294626;0,00000000;
00:45:05:593;-0,0059;0,1314;-0,2000;56,33834181;37,52294626;0,00000000;
00:45:05:597;-0,0321;0,0820;-0,2477;56,33834181;37,52294626;0,00000000;
00:45:05:605;-0,1038;0,0471;-0,3121;56,33834181;37,52294626;0,00000000;
00:45:05:610;-0,1519;0,0626;-0,3933;56,33834181;37,52294626;0,00000000;
00:45:05:613;-0,1429;0,0784;-0,3815;56,33834181;37,52294626;0,00000000;
00:45:05:619;-0,0819;0,0585;-0,3005;56,33834181;37,52294626;0,00000000;
00:45:05:624;0,0551;0,1056;-0,1957;56,33834181;37,52294626;0,00000000;
00:45:05:627;0,0551;0,1056;-0,1957;56,33834181;37,52294626;0,00000000;
00:45:05:628;0,1490;0,1407;-0,1196;56,33834181;37,52294626;0,00000000;
00:45:05:632;0,1928;0,1108;-0,0673;56,33834181;37,52294626;0,00000000;
00:45:05:638;0,1928;0,1108;-0,0673;56,33834181;37,52294626;0,00000000;
00:45:05:640;0,1976;0,0753;-0,0003;56,33834181;37,52294626;0,00000000;
00:45:05:643;0,1670;0,0801;-0,0378;56,33834181;37,52294626;0,00000000;
00:45:05:648;0,1177;0,0534;-0,0317;56,33834181;37,52294626;0,00000000;
00:45:05:654;0,0399;0,0336;-0,0082;56,33834181;37,52294626;0,00000000;
00:45:05:659;0,0239;0,0252;-0,0221;56,33834181;37,52294626;0,00000000;
00:45:05:663;-0,0021;-0,0407;-0,0897;56,33834181;37,52294626;0,00000000;
00:45:05:669;-0,0760;-0,0352;-0,1299;56,33834181;37,52294626;0,00000000;
00:45:05:673;-0,1498;-0,0158;-0,1243;56,33834181;37,52294626;0,00000000;
00:45:05:678;-0,1805;-0,0109;-0,2039;56,33834181;37,52294626;0,00000000;
00:45:05:683;-0,1710;0,0273;-0,1998;56,33834181;37,52294626;0,00000000;
00:45:05:689;-0,1096;0,0415;-0,2078;56,33834181;37,52294626;0,00000000;
00:45:05:694;-0,1096;0,0415;-0,2078;56,33834181;37,52294626;0,00000000;
00:45:05:695;-0,0559;0,0131;-0,2776;56,33834181;37,52294626;0,00000000;
00:45:05:698;-0,0452;0,0280;-0,3377;56,33834181;37,52294626;0,00000000;
00:45:05:704;-0,0224;0,0385;-0,3790;56,33834181;37,52294626;0,00000000;
00:45:05:707;-0,0224;0,0385;-0,3790;56,33834181;37,52294626;0,00000000;
00:45:05:708;0,0078;0,0519;-0,4041;56,33834181;37,52294626;0,00000000;
00:45:05:713;0,0242;0,0847;-0,3752;56,33834181;37,52294626;0,00000000;
00:45:05:720;0,0079;0,0798;-0,3711;56,33834181;37,52294626;0,00000000;
00:45:05:725;-0,0007;0,0682;-0,3511;56,33834181;37,52294626;0,00000000;
00:45:05:728;-0,0656;0,0594;-0,3126;56,33834181;37,52294626;0,00000000;
00:45:05:733;-0,0845;0,0652;-0,3248;56,33834181;37,52294626;0,00000000;
00:45:05:741;-0,1435;0,0427;-0,2588;56,33834181;37,52294626;0,00000000;
00:45:05:745;-0,1165;0,0419;-0,2244;56,33834181;37,52294626;0,00000000;
00:45:05:749;-0,0637;0,0483;-0,2117;56,33834181;37,52294626;0,00000000;
00:45:05:754;-0,0565;0,0333;-0,2063;56,33834181;37,52294626;0,00000000;
00:45:05:758;-0,0730;0,0564;-0,2056;56,33834181;37,52294626;0,00000000;
00:45:05:760;-0,0730;0,0564;-0,2056;56,33834181;37,52294626;0,00000000;
00:45:05:764;-0,0585;0,0388;-0,2618;56,33834181;37,52294626;0,00000000;
00:45:05:771;-0,0585;0,0388;-0,2618;56,33834181;37,52294626;0,00000000;
00:45:05:773;-0,0727;0,0236;-0,2295;56,33834181;37,52294626;0,00000000;
00:45:05:775;-0,0465;0,0061;-0,2330;56,33834181;37,52294626;0,00000000;
00:45:05:779;-0,0636;0,0171;-0,2529;56,33834181;37,52294626;0,00000000;
00:45:05:784;-0,0287;0,0089;-0,2510;56,33834181;37,52294626;0,00000000;
00:45:05:790;-0,0039;0,0339;-0,1799;56,33834181;37,52294626;0,00000000;
00:45:05:794;0,0274;-0,0105;-0,1304;56,33834181;37,52294626;0,00000000;
00:45:05:799;0,0368;-0,0002;-0,1711;56,33834181;37,52294626;0,00000000;
00:45:05:806;0,0269;0,0051;-0,2230;56,33834181;37,52294626;0,00000000;
00:45:05:809;0,0170;0,0007;-0,2506;56,33834181;37,52294626;0,00000000;
00:45:05:813;0,0762;-0,0416;-0,2732;56,33834181;37,52294626;0,00000000;
00:45:05:820;0,0712;-0,0478;-0,3053;56,33834181;37,52294626;0,00000000;
00:45:05:824;0,0311;0,0365;-0,3851;56,33834181;37,52294626;0,00000000;
00:45:05:826;0,0311;0,0365;-0,3851;56,33834181;37,52294626;0,00000000;
00:45:05:829;-0,0084;0,0564;-0,4388;56,33834181;37,52294626;0,00000000;
00:45:05:833;-0,0084;0,0564;-0,4388;56,33834181;37,52294626;0,00000000;
00:45:05:835;-0,0045;0,0435;-0,4238;56,33834181;37,52294626;0,00000000;
00:45:05:841;0,0212;0,0526;-0,3742;56,33834181;37,52294626;0,00000000;
00:45:05:845;-0,0194;0,0003;-0,3376;56,33834181;37,52294626;0,00000000;
00:45:05:849;-0,0876;0,0035;-0,2782;56,33834181;37,52294626;0,00000000;
00:45:05:854;-0,1456;-0,0215;-0,1912;56,33834181;37,52294626;0,00000000;
00:45:05:860;-0,1819;-0,0224;-0,1597;56,33834181;37,52294626;0,00000000;
00:45:05:865;-0,2395;-0,0446;-0,1261;56,33834181;37,52294626;0,00000000;
00:45:05:870;-0,2734;-0,0240;-0,0973;56,33834181;37,52294626;0,00000000;
00:45:05:874;-0,3123;-0,0393;-0,1066;56,33834181;37,52294626;0,00000000;
00:45:05:879;-0,2448;-0,0427;-0,1107;56,33834181;37,52294626;0,00000000;
00:45:05:886;-0,1760;-0,0225;-0,1478;56,33834181;37,52294626;0,00000000;
00:45:05:889;-0,1760;-0,0225;-0,1478;56,33834181;37,52294626;0,00000000;
00:45:05:890;-0,1131;-0,0237;-0,1442;56,33834181;37,52294626;0,00000000;
00:45:05:894;-0,0392;-0,0036;-0,1309;56,33834181;37,52294626;0,00000000;
00:45:05:899;-0,0392;-0,0036;-0,1309;56,33834181;37,52294626;0,00000000;
00:45:05:900;-0,0040;0,0329;-0,1202;56,33834181;37,52294626;0,00000000;
00:45:05:906;0,0381;0,0479;-0,1477;56,33834181;37,52294626;0,00000000;
00:45:05:909;0,0968;0,0532;-0,1156;56,33834181;37,52294626;0,00000000;
00:45:05:914;0,0912;0,0396;-0,0673;56,33834181;37,52294626;0,00000000;
00:45:05:919;0,0982;0,0452;-0,0743;56,33834181;37,52294626;0,00000000;
00:45:05:924;0,0653;0,0462;-0,1481;56,33834181;37,52294626;0,00000000;
00:45:05:929;0,0167;0,0473;-0,1670;56,33834181;37,52294626;0,00000000;
00:45:05:936;0,0141;0,0250;-0,1957;56,33834181;37,52294626;0,00000000;
00:45:05:939;0,0000;0,0340;-0,1819;56,33834181;37,52294626;0,00000000;
00:45:05:944;-0,0161;0,0360;-0,1708;56,33834181;37,52294626;0,00000000;
00:45:05:949;-0,0273;0,0334;-0,1578;56,33834181;37,52294626;0,00000000;
00:45:05:955;-0,0273;0,0334;-0,1578;56,33834181;37,52294626;0,00000000;
00:45:05:957;-0,0078;0,0048;-0,1164;56,33834181;37,52294626;0,00000000;
00:45:05:959;-0,0597;-0,0213;-0,1083;56,33834181;37,52294626;0,00000000;
00:45:05:964;-0,0597;-0,0213;-0,1083;56,33834181;37,52294626;0,00000000;
00:45:05:965;-0,0829;-0,0284;-0,0717;56,33834181;37,52294626;0,00000000;
00:45:05:970;-0,0992;-0,0378;-0,0683;56,33834181;37,52294626;0,00000000;
00:45:05:975;-0,0920;-0,0379;-0,0505;56,33834181;37,52294626;0,00000000;
00:45:05:979;-0,0614;-0,0405;-0,0230;56,33834181;37,52294626;0,00000000;
00:45:05:986;0,0043;-0,0173;-0,0095;56,33834181;37,52294626;0,00000000;
00:45:05:991;-0,0065;0,0103;-0,0315;56,33834181;37,52294626;0,00000000;
00:45:05:995;-0,0383;0,0090;-0,0675;56,33834181;37,52294626;0,00000000;
00:45:06:000;-0,0081;-0,0373;-0,1270;56,33834181;37,52294626;0,00000000;
00:45:06:005;-0,0302;-0,0665;-0,1741;56,33834181;37,52294626;0,00000000;
00:45:06:010;-0,0543;-0,0527;-0,1570;56,33834181;37,52294626;0,00000000;
00:45:06:015;-0,0734;-0,0340;-0,1356;56,33834181;37,52294626;0,00000000;
00:45:06:020;-0,0734;-0,0340;-0,1356;56,33834181;37,52294626;0,00000000;
00:45:06:022;-0,0806;0,0083;-0,1476;56,33834181;37,52294626;0,00000000;
00:45:06:026;-0,0805;-0,0233;-0,1121;56,33834181;37,52294626;0,00000000;
00:45:06:030;-0,0805;-0,0233;-0,1121;56,33834181;37,52294626;0,00000000;
00:45:06:031;-0,0759;-0,0214;-0,0627;56,33834181;37,52294626;0,00000000;
00:45:06:037;-0,0428;-0,0123;-0,0493;56,33834181;37,52294626;0,00000000;
00:45:06:041;-0,0576;-0,0152;-0,0217;56,33834181;37,52294626;0,00000000;
00:45:06:045;-0,0652;-0,0207;-0,0344;56,33834181;37,52294626;0,00000000;
00:45:06:050;-0,0585;-0,0096;-0,0445;56,33834181;37,52294626;0,00000000;
00:45:06:055;-0,0375;-0,0081;-0,0284;56,33834181;37,52294626;0,00000000;
00:45:06:060;-0,0784;-0,0210;-0,0433;56,33834181;37,52294626;0,00000000;
00:45:06:065;-0,0523;-0,0005;-0,0959;56,33834181;37,52294626;0,00000000;
00:45:06:071;-0,0598;-0,0087;-0,1054;56,33834181;37,52294626;0,00000000;
00:45:06:076;-0,0553;0,0284;-0,1006;56,33834181;37,52294626;0,00000000;
00:45:06:080;-0,0436;0,0201;-0,0936;56,33834181;37,52294626;0,00000000;
00:45:06:086;-0,0436;0,0201;-0,0936;56,33834181;37,52294626;0,00000000;
00:45:06:089;-0,0559;0,0167;-0,0654;56,33834181;37,52294626;0,00000000;
00:45:06:092;0,0127;0,0228;-0,0540;56,33834181;37,52294626;0,00000000;
00:45:06:096;0,0127;0,0228;-0,0540;56,33834181;37,52294626;0,00000000;
00:45:06:097;0,0310;0,0501;-0,0022;56,33834181;37,52294626;0,00000000;
00:45:06:100;0,0351;0,0392;-0,0102;56,33834181;37,52294626;0,00000000;
00:45:06:105;0,0347;-0,0098;-0,0085;56,33834181;37,52294626;0,00000000;
00:45:06:111;-0,0104;-0,0134;0,0100;56,33834181;37,52294626;0,00000000;
00:45:06:115;-0,0196;-0,0005;-0,0356;56,33834181;37,52294626;0,00000000;
00:45:06:122;-0,0738;0,0240;-0,0687;56,33834181;37,52294626;0,00000000;
00:45:06:126;-0,0568;0,0173;-0,0538;56,33834181;37,52294626;0,00000000;
00:45:06:131;-0,0615;0,0178;-0,0959;56,33834181;37,52294626;0,00000000;
00:45:06:137;-0,1187;0,0062;-0,1613;56,33834181;37,52294626;0,00000000;
00:45:06:141;-0,1305;0,0090;-0,1975;56,33834181;37,52294626;0,00000000;
00:45:06:145;-0,1214;-0,0284;-0,2263;56,33834181;37,52294626;0,00000000;
00:45:06:151;-0,1214;-0,0284;-0,2263;56,33834181;37,52294626;0,00000000;
00:45:06:152;-0,0934;-0,0061;-0,2361;56,33834181;37,52294626;0,00000000;
00:45:06:158;-0,0420;0,0139;-0,2342;56,33834181;37,52294626;0,00000000;
00:45:06:163;-0,0420;0,0139;-0,2342;56,33834181;37,52294626;0,00000000;
00:45:06:164;-0,0026;0,0102;-0,2233;56,33834181;37,52294626;0,00000000;
00:45:06:167;0,0082;0,0093;-0,1987;56,33834181;37,52294626;0,00000000;
00:45:06:174;0,0075;0,0110;-0,2483;56,33834181;37,52294626;0,00000000;
00:45:06:177;0,0120;0,0366;-0,2100;56,33834181;37,52294626;0,00000000;
00:45:06:181;0,0430;0,0290;-0,1891;56,33834181;37,52294626;0,00000000;
00:45:06:187;-0,0185;0,0074;-0,2137;56,33834181;37,52294626;0,00000000;
00:45:06:191;-0,0105;0,0311;-0,1789;56,33834181;37,52294626;0,00000000;
00:45:06:196;-0,0382;0,0596;-0,1969;56,33834181;37,52294626;0,00000000;
00:45:06:200;-0,0562;0,0142;-0,1623;56,33834181;37,52294626;0,00000000;
00:45:06:206;-0,0435;0,0284;-0,1374;56,33834181;37,52294626;0,00000000;
00:45:06:211;-0,0406;0,0257;-0,1457;56,33834181;37,52294626;0,00000000;
00:45:06:216;-0,0406;0,0257;-0,1457;56,33834181;37,52294626;0,00000000;
00:45:06:217;-0,0214;0,0537;-0,1488;56,33834181;37,52294626;0,00000000;
00:45:06:222;-0,0147;0,0528;-0,1635;56,33834181;37,52294626;0,00000000;
00:45:06:226;-0,0224;0,0518;-0,1802;56,33834181;37,52294626;0,00000000;
00:45:06:228;-0,0224;0,0518;-0,1802;56,33834181;37,52294626;0,00000000;
00:45:06:231;0,0030;0,0531;-0,1942;56,33834181;37,52294626;0,00000000;
00:45:06:237;-0,0170;0,0590;-0,1866;56,33834181;37,52294626;0,00000000;
00:45:06:241;-0,0060;0,0910;-0,1767;56,33834181;37,52294626;0,00000000;
00:45:06:246;-0,0261;0,0943;-0,1574;56,33834181;37,52294626;0,00000000;
00:45:06:253;-0,0482;0,1119;-0,1788;56,33834181;37,52294626;0,00000000;
00:45:06:258;-0,0771;0,1318;-0,2453;56,33834181;37,52294626;0,00000000;
00:45:06:261;-0,0582;0,1661;-0,2594;56,33834181;37,52294626;0,00000000;
00:45:06:266;-0,0893;0,1979;-0,2096;56,33834181;37,52294626;0,00000000;
00:45:06:272;-0,0869;0,2511;-0,2080;56,33834181;37,52294626;0,00000000;
00:45:06:276;-0,1057;0,3040;-0,1783;56,33834181;37,52294626;0,00000000;
00:45:06:281;-0,1057;0,3040;-0,1783;56,33834181;37,52294626;0,00000000;
00:45:06:282;-0,1410;0,3378;-0,1373;56,33834181;37,52294626;0,00000000;
00:45:06:287;-0,1451;0,4096;-0,0639;56,33834181;37,52294626;0,00000000;
00:45:06:291;-0,1451;0,4096;-0,0639;56,33834181;37,52294626;0,00000000;
00:45:06:293;-0,1137;0,4453;-0,0007;56,33834181;37,52294626;0,00000000;
00:45:06:297;-0,0758;0,5402;0,0523;56,33834181;37,52294626;0,00000000;
00:45:06:303;0,0137;0,5964;0,1024;56,33834181;37,52294626;0,00000000;
00:45:06:308;0,0383;0,6926;0,1734;56,33834181;37,52294626;0,00000000;
00:45:06:311;0,0918;0,7839;0,2839;56,33834181;37,52294626;0,00000000;
00:45:06:316;0,1523;0,8895;0,3441;56,33834181;37,52294626;0,00000000;
00:45:06:322;0,2031;0,9660;0,3806;56,33834181;37,52294626;0,00000000;
00:45:06:326;0,2637;1,0710;0,4388;56,33834181;37,52294626;0,00000000;
00:45:06:331;0,3291;1,2044;0,4756;56,33834181;37,52294626;0,00000000;
00:45:06:336;0,4257;1,3252;0,5368;56,33834181;37,52294626;0,00000000;
00:45:06:341;0,4912;1,4598;0,6225;56,33834181;37,52294626;0,00000000;
00:45:06:347;0,4912;1,4598;0,6225;56,33834181;37,52294626;0,00000000;
00:45:06:348;0,5232;1,5602;0,7375;56,33834181;37,52294626;0,00000000;
00:45:06:354;0,5456;1,6406;0,7864;56,33834181;37,52294626;0,00000000;
00:45:06:360;0,6207;1,6366;0,7884;56,33834181;37,52294626;0,00000000;
00:45:06:362;0,6207;1,6366;0,7884;56,33834181;37,52294626;0,00000000;
00:45:06:363;0,7073;1,7205;0,8748;56,33834181;37,52294626;0,00000000;
00:45:06:367;0,6267;1,8589;1,0358;56,33834181;37,52294626;0,00000000;
00:45:06:374;0,6355;1,9820;1,1665;56,33834181;37,52294626;0,00000000;
00:45:06:378;0,6978;2,1497;1,2477;56,33834181;37,52294626;0,00000000;
00:45:06:383;0,7586;2,3522;1,4326;56,33834181;37,52294626;0,00000000;
00:45:06:391;0,7943;2,4911;1,6068;56,33834181;37,52294626;0,00000000;
00:45:06:394;0,9245;2,4420;1,6102;56,33834181;37,52294626;0,00000000;
00:45:06:397;1,0775;2,1791;1,6054;56,33834181;37,52294626;0,00000000;
00:45:06:403;1,0981;1,9323;1,6520;56,33834181;37,52294626;0,00000000;
00:45:06:409;0,9700;1,7421;1,7094;56,33834181;37,52294626;0,00000000;
00:45:06:414;0,7695;1,6539;1,8134;56,33834181;37,52294626;0,00000000;
00:45:06:416;0,7695;1,6539;1,8134;56,33834181;37,52294626;0,00000000;
00:45:06:418;0,6041;1,5313;1,8445;56,33834181;37,52294626;0,00000000;
00:45:06:423;0,6041;1,5313;1,8445;56,33834181;37,52294626;0,00000000;
00:45:06:426;0,5333;1,3216;1,8629;56,33834181;37,52294626;0,00000000;
00:45:06:428;0,4249;1,1996;1,8804;56,33834181;37,52294626;0,00000000;
00:45:06:432;0,2647;1,0790;1,8783;56,33834181;37,52294626;0,00000000;
00:45:06:438;0,0884;0,9263;1,8874;56,33834181;37,52294626;0,00000000;
00:45:06:442;-0,0777;0,8250;1,8078;56,33834181;37,52294626;0,00000000;
00:45:06:447;-0,1815;0,6776;1,7395;56,33834181;37,52294626;0,00000000;
00:45:06:453;-0,2806;0,4793;1,6728;56,33834181;37,52294626;0,00000000;
00:45:06:458;-0,3129;0,3380;1,5717;56,33834181;37,52294626;0,00000000;
00:45:06:462;-0,2973;0,1458;1,4197;56,33834181;37,52294626;0,00000000;
00:45:06:470;-0,3153;-0,0202;1,2855;56,33834181;37,52294626;0,00000000;
00:45:06:473;-0,3405;-0,1431;1,1307;56,33834181;37,52294626;0,00000000;
00:45:06:477;-0,3405;-0,1431;1,1307;56,33834181;37,52294626;0,00000000;
00:45:06:478;-0,3415;-0,2470;0,9480;56,33834181;37,52294626;0,00000000;
00:45:06:483;-0,3019;-0,4033;0,7538;56,33834181;37,52294626;0,00000000;
00:45:06:488;-0,3019;-0,4033;0,7538;56,33834181;37,52294626;0,00000000;
00:45:06:490;-0,2478;-0,5064;0,5837;56,33834181;37,52294626;0,00000000;
00:45:06:494;-0,2439;-0,6042;0,4635;56,33834181;37,52294626;0,00000000;
00:45:06:498;-0,2373;-0,7636;0,3886;56,33834181;37,52294626;0,00000000;
00:45:06:503;-0,2325;-0,8458;0,3370;56,33834181;37,52294626;0,00000000;
00:45:06:508;-0,2200;-0,9655;0,2466;56,33834181;37,52294626;0,00000000;
00:45:06:513;-0,3121;-1,1109;0,1773;56,33834181;37,52294626;0,00000000;
00:45:06:521;-0,3937;-1,2223;0,0909;56,33834181;37,52294626;0,00000000;
00:45:06:526;-0,4582;-1,3306;0,0566;56,33834181;37,52294626;0,00000000;
00:45:06:528;-0,5705;-1,4191;0,0577;56,33834181;37,52294626;0,00000000;
00:45:06:532;-0,6778;-1,4427;-0,0395;56,33834181;37,52294626;0,00000000;
00:45:06:538;-0,7067;-1,5469;-0,1109;56,33834181;37,52294626;0,00000000;
00:45:06:544;-0,7067;-1,5469;-0,1109;56,33834181;37,52294626;0,00000000;
00:45:06:545;-0,7646;-1,6342;-0,1845;56,33834181;37,52294626;0,00000000;
00:45:06:549;-0,7803;-1,6682;-0,2775;56,33834181;37,52294626;0,00000000;
00:45:06:553;-0,7803;-1,6682;-0,2775;56,33834181;37,52294626;0,00000000;
00:45:06:555;-0,7418;-1,7261;-0,3128;56,33834181;37,52294626;0,00000000;
00:45:06:559;-0,6947;-1,7693;-0,3767;56,33834181;37,52294626;0,00000000;
00:45:06:563;-0,6607;-1,8145;-0,4957;56,33834181;37,52294626;0,00000000;
00:45:06:570;-0,6108;-1,8714;-0,6003;56,33834181;37,52294626;0,00000000;
00:45:06:575;-0,5714;-1,8875;-0,6927;56,33834181;37,52294626;0,00000000;
00:45:06:579;-0,4850;-1,9222;-0,8094;56,33834181;37,52294626;0,00000000;
00:45:06:583;-0,3874;-1,9494;-0,9404;56,33834181;37,52294626;0,00000000;
00:45:06:592;-0,3120;-1,9690;-1,0215;56,33834181;37,52294626;0,00000000;
00:45:06:594;-0,2730;-1,9690;-1,1176;56,33834181;37,52294626;0,00000000;
00:45:06:599;-0,2511;-1,9851;-1,2622;56,33834181;37,52294626;0,00000000;
00:45:06:607;-0,3108;-1,9766;-1,4007;56,33834181;37,52294626;0,00000000;
00:45:06:610;-0,2750;-1,9841;-1,5138;56,33834181;37,52294626;0,00000000;
00:45:06:611;-0,2750;-1,9841;-1,5138;56,33834181;37,52294626;0,00000000;
00:45:06:615;-0,2469;-1,9789;-1,5803;56,33834181;37,52294626;0,00000000;
00:45:06:620;-0,2469;-1,9789;-1,5803;56,33834181;37,52294626;0,00000000;
00:45:06:623;-0,2595;-1,9658;-1,6481;56,33834181;37,52294626;0,00000000;
00:45:06:625;-0,2295;-1,9518;-1,6478;56,33834181;37,52294626;0,00000000;
00:45:06:630;-0,2190;-1,9347;-1,6443;56,33834181;37,52294626;0,00000000;
00:45:06:633;-0,2136;-1,9433;-1,7113;56,33834181;37,52294626;0,00000000;
00:45:06:639;-0,2062;-1,9465;-1,7291;56,33834181;37,52294626;0,00000000;
00:45:06:645;-0,2446;-1,9610;-1,7815;56,33834181;37,52294626;0,00000000;
00:45:06:648;-0,2355;-2,0418;-1,8232;56,33834181;37,52294626;0,00000000;
00:45:06:654;-0,2362;-2,1123;-1,8995;56,33834181;37,52294626;0,00000000;
00:45:06:659;-0,2849;-2,1390;-1,9364;56,33834181;37,52294626;0,00000000;
00:45:06:664;-0,3914;-2,1697;-2,0417;56,33834181;37,52294626;0,00000000;
00:45:06:671;-0,5006;-2,2188;-2,0644;56,33834181;37,52294626;0,00000000;
00:45:06:678;-0,5006;-2,2188;-2,0644;56,33834181;37,52294626;0,00000000;
00:45:06:679;-0,6055;-2,2313;-2,0432;56,33834181;37,52294626;0,00000000;
00:45:06:681;-0,7689;-2,2669;-2,0833;56,33834181;37,52294626;0,00000000;
00:45:06:685;-0,7689;-2,2669;-2,0833;56,33834181;37,52294626;0,00000000;
00:45:06:686;-0,8902;-2,2876;-2,0503;56,33834181;37,52294626;0,00000000;
00:45:06:690;-1,0010;-2,3052;-2,0235;56,33834181;37,52294626;0,00000000;
00:45:06:696;-1,0658;-2,2983;-2,0121;56,33834181;37,52294626;0,00000000;
00:45:06:699;-1,0870;-2,3003;-1,9708;56,33834181;37,52294626;0,00000000;
00:45:06:706;-1,0646;-2,2397;-1,9784;56,33834181;37,52294626;0,00000000;
00:45:06:708;-1,0059;-2,1618;-2,0181;56,33834181;37,52294626;0,00000000;
00:45:06:713;-0,8919;-2,0880;-2,0187;56,33834181;37,52294626;0,00000000;
00:45:06:720;-0,7696;-1,9993;-2,0373;56,33834181;37,52294626;0,00000000;
00:45:06:726;-0,6748;-1,9002;-2,0863;56,33834181;37,52294626;0,00000000;
00:45:06:729;-0,5833;-1,8339;-2,0987;56,33834181;37,52294626;0,00000000;
00:45:06:734;-0,5381;-1,7022;-2,0747;56,33834181;37,52294626;0,00000000;
00:45:06:739;-0,5381;-1,7022;-2,0747;56,33834181;37,52294626;0,00000000;
00:45:06:741;-0,5003;-1,6320;-2,0070;56,33834181;37,52294626;0,00000000;
00:45:06:745;-0,4345;-1,5538;-1,9338;56,33834181;37,52294626;0,00000000;
00:45:06:749;-0,4345;-1,5538;-1,9338;56,33834181;37,52294626;0,00000000;
00:45:06:750;-0,4197;-1,4295;-1,8432;56,33834181;37,52294626;0,00000000;
00:45:06:755;-0,3836;-1,3261;-1,7398;56,33834181;37,52294626;0,00000000;
00:45:06:761;-0,3670;-1,2485;-1,6593;56,33834181;37,52294626;0,00000000;
00:45:06:764;-0,3387;-1,1583;-1,5753;56,33834181;37,52294626;0,00000000;
00:45:06:769;-0,3252;-1,0510;-1,5448;56,33834181;37,52294626;0,00000000;
00:45:06:774;-0,2974;-0,9218;-1,4937;56,33834181;37,52294626;0,00000000;
00:45:06:779;-0,2916;-0,8281;-1,4412;56,33834181;37,52294626;0,00000000;
00:45:06:784;-0,2931;-0,7579;-1,3919;56,33834181;37,52294626;0,00000000;
00:45:06:790;-0,3381;-0,6779;-1,3886;56,33834181;37,52294626;0,00000000;
00:45:06:794;-0,3549;-0,5881;-1,2829;56,33834181;37,52294626;0,00000000;
00:45:06:799;-0,3531;-0,4815;-1,1702;56,33834181;37,52294626;0,00000000;
00:45:06:806;-0,3531;-0,4815;-1,1702;56,33834181;37,52294626;0,00000000;
00:45:06:808;-0,3830;-0,4275;-1,1126;56,33834181;37,52294626;0,00000000;
00:45:06:811;-0,4207;-0,3422;-1,0456;56,33834181;37,52294626;0,00000000;
00:45:06:816;-0,4207;-0,3422;-1,0456;56,33834181;37,52294626;0,00000000;
00:45:06:817;-0,4278;-0,2569;-1,0241;56,33834181;37,52294626;0,00000000;
00:45:06:822;-0,4353;-0,1932;-0,9258;56,33834181;37,52294626;0,00000000;
00:45:06:829;-0,4623;-0,0958;-0,8423;56,33834181;37,52294626;0,00000000;
00:45:06:831;-0,5373;-0,0343;-0,7684;56,33834181;37,52294626;0,00000000;
00:45:06:839;-0,6724;0,0657;-0,7187;56,33834181;37,52294626;0,00000000;
00:45:06:841;-0,7912;0,2255;-0,7218;56,33834181;37,52294626;0,00000000;
00:45:06:846;-0,8176;0,3950;-0,6628;56,33834181;37,52294626;0,00000000;
00:45:06:850;-0,8072;0,5862;-0,5752;56,33834181;37,52294626;0,00000000;
00:45:06:860;-0,7623;0,7412;-0,4371;56,33834181;37,52294626;0,00000000;
00:45:06:862;-0,6069;0,9633;-0,3636;56,33834181;37,52294626;0,00000000;
00:45:06:869;-0,4245;1,1685;-0,2682;56,33834181;37,52294626;0,00000000;
00:45:06:871;-0,4245;1,1685;-0,2682;56,33834181;37,52294626;0,00000000;
00:45:06:872;-0,1480;1,3640;-0,1463;56,33834181;37,52294626;0,00000000;
00:45:06:875;0,0891;1,6357;0,0070;56,33834181;37,52294626;0,00000000;
00:45:06:880;0,0891;1,6357;0,0070;56,33834181;37,52294626;0,00000000;
00:45:06:882;0,3041;1,8378;0,1127;56,33834181;37,52294626;0,00000000;
00:45:06:886;0,5785;2,0375;0,2278;56,33834181;37,52294626;0,00000000;
00:45:06:889;0,8792;2,2394;0,3572;56,33834181;37,52294626;0,00000000;
00:45:06:894;1,1493;2,3359;0,4673;56,33834181;37,52294626;0,00000000;
00:45:06:899;1,4297;2,2532;0,3188;56,33834181;37,52294626;0,00000000;
00:45:06:905;1,5480;2,3099;0,4685;56,33834181;37,52294626;0,00000000;
00:45:06:910;1,4855;2,6301;0,8083;56,33834181;37,52294626;0,00000000;
00:45:06:915;1,5017;2,8830;1,0879;56,33834181;37,52294626;0,00000000;
00:45:06:920;1,5274;3,1998;1,2788;56,33834181;37,52294626;0,00000000;
00:45:06:925;1,6072;3,4657;1,4674;56,33834181;37,52294626;0,00000000;
00:45:06:929;1,7176;3,6734;1,7714;56,33834181;37,52294626;0,00000000;
00:45:06:936;1,7941;3,8058;2,0473;56,33834181;37,52294626;0,00000000;
00:45:06:937;1,7941;3,8058;2,0473;56,33834181;37,52294626;0,00000000;
00:45:06:941;1,9831;3,6644;2,0946;56,33834181;37,52294626;0,00000000;
00:45:06:945;1,9831;3,6644;2,0946;56,33834181;37,52294626;0,00000000;
00:45:06:946;2,1698;3,4194;2,1502;56,33834181;37,52294626;0,00000000;
00:45:06:950;2,2654;3,2094;2,3433;56,33834181;37,52294626;0,00000000;
00:45:06:955;2,2274;3,1970;2,5900;56,33834181;37,52294626;0,00000000;
00:45:06:960;2,1062;3,1306;2,8140;56,33834181;37,52294626;0,00000000;
00:45:06:965;1,9857;3,0843;2,9704;56,33834181;37,52294626;0,00000000;
00:45:06:971;1,8871;2,9047;3,0499;56,33834181;37,52294626;0,00000000;
00:45:06:977;1,7143;2,6875;3,1749;56,33834181;37,52294626;0,00000000;
00:45:06:980;1,5175;2,5189;3,2927;56,33834181;37,52294626;0,00000000;
00:45:06:987;1,3012;2,3029;3,4013;56,33834181;37,52294626;0,00000000;
00:45:06:992;1,0433;2,1209;3,4987;56,33834181;37,52294626;0,00000000;
00:45:06:995;0,9108;1,9726;3,4920;56,33834181;37,52294626;0,00000000;
00:45:07:000;0,9108;1,9726;3,4920;56,33834181;37,52294626;0,00000000;
00:45:07:001;0,7765;1,7982;3,5105;56,33834181;37,52294626;0,00000000;
00:45:07:007;0,6475;1,6144;3,3990;56,33834181;37,52294626;0,00000000;
00:45:07:010;0,6475;1,6144;3,3990;56,33834181;37,52294626;0,00000000;
00:45:07:012;0,6122;1,4907;3,2937;56,33834181;37,52294626;0,00000000;
00:45:07:015;0,5508;1,3410;3,1251;56,33834181;37,52294626;0,00000000;
00:45:07:021;0,4682;1,1895;2,8980;56,33834181;37,52294626;0,00000000;
00:45:07:026;0,4554;1,0914;2,6001;56,33834181;37,52294626;0,00000000;
00:45:07:030;0,4285;0,9825;2,4029;56,33834181;37,52294626;0,00000000;
00:45:07:038;0,4163;0,8700;2,1748;56,33834181;37,52294626;0,00000000;
00:45:07:041;0,3186;0,7663;1,9417;56,33834181;37,52294626;0,00000000;
00:45:07:045;0,2072;0,6453;1,7293;56,33834181;37,52294626;0,00000000;
00:45:07:051;0,0869;0,4953;1,5853;56,33834181;37,52294626;0,00000000;
00:45:07:056;0,0005;0,3715;1,4207;56,33834181;37,52294626;0,00000000;
00:45:07:061;-0,1285;0,2451;1,2716;56,33834181;37,52294626;0,00000000;
00:45:07:065;-0,1285;0,2451;1,2716;56,33834181;37,52294626;0,00000000;
00:45:07:066;-0,2262;0,1715;1,1422;56,33834181;37,52294626;0,00000000;
00:45:07:072;-0,2929;0,0265;0,9557;56,33834181;37,52294626;0,00000000;
00:45:07:075;-0,2929;0,0265;0,9557;56,33834181;37,52294626;0,00000000;
00:45:07:077;-0,3545;-0,0441;0,8557;56,33834181;37,52294626;0,00000000;
00:45:07:080;-0,3492;-0,1429;0,7938;56,33834181;37,52294626;0,00000000;
00:45:07:086;-0,3702;-0,2269;0,7128;56,33834181;37,52294626;0,00000000;
00:45:07:092;-0,3385;-0,3392;0,5887;56,33834181;37,52294626;0,00000000;
00:45:07:095;-0,3617;-0,4414;0,4715;56,33834181;37,52294626;0,00000000;
00:45:07:103;-0,3945;-0,4999;0,3852;56,33834181;37,52294626;0,00000000;
00:45:07:108;-0,4320;-0,6082;0,2843;56,33834181;37,52294626;0,00000000;
00:45:07:111;-0,4362;-0,6848;0,1807;56,33834181;37,52294626;0,00000000;
00:45:07:116;-0,4147;-0,7320;0,1292;56,33834181;37,52294626;0,00000000;
00:45:07:122;-0,4081;-0,7646;0,1091;56,33834181;37,52294626;0,00000000;
00:45:07:128;-0,3613;-0,7491;0,0770;56,33834181;37,52294626;0,00000000;
00:45:07:131;-0,3613;-0,7491;0,0770;56,33834181;37,52294626;0,00000000;
00:45:07:132;-0,2985;-0,7740;0,1119;56,33834181;37,52294626;0,00000000;
00:45:07:139;-0,2556;-0,8227;0,0730;56,33834181;37,52294626;0,00000000;
00:45:07:144;-0,2556;-0,8227;0,0730;56,33834181;37,52294626;0,00000000;
00:45:07:145;-0,1963;-0,8235;0,0562;56,33834181;37,52294626;0,00000000;
00:45:07:147;-0,1733;-0,8817;-0,0079;56,33834181;37,52294626;0,00000000;
00:45:07:154;-0,1744;-0,9516;-0,0839;56,33834181;37,52294626;0,00000000;
00:45:07:160;-0,2472;-0,9949;-0,0879;56,33834181;37,52294626;0,00000000;
00:45:07:163;-0,3559;-1,0621;-0,1943;56,33834181;37,52294626;0,00000000;
00:45:07:169;-0,4624;-1,1004;-0,2740;56,33834181;37,52294626;0,00000000;
00:45:07:173;-0,5692;-1,1695;-0,3343;56,33834181;37,52294626;0,00000000;
00:45:07:180;-0,6672;-1,2168;-0,4279;56,33834181;37,52294626;0,00000000;
00:45:07:182;-0,7016;-1,2326;-0,5573;56,33834181;37,52294626;0,00000000;
00:45:07:188;-0,7489;-1,2672;-0,6963;56,33834181;37,52294626;0,00000000;
00:45:07:194;-0,7255;-1,2967;-0,7513;56,33834181;37,52294626;0,00000000;
00:45:07:199;-0,7255;-1,2967;-0,7513;56,33834181;37,52294626;0,00000000;
00:45:07:201;-0,6554;-1,3207;-0,8739;56,33834181;37,52294626;0,00000000;
00:45:07:203;-0,6081;-1,3467;-0,9729;56,33834181;37,52294626;0,00000000;
00:45:07:211;-0,5568;-1,3911;-1,0751;56,33834181;37,52294626;0,00000000;
00:45:07:214;-0,5568;-1,3911;-1,0751;56,33834181;37,52294626;0,00000000;
00:45:07:215;-0,4751;-1,3967;-1,1658;56,33834181;37,52294626;0,00000000;
00:45:07:218;-0,3774;-1,3945;-1,2934;56,33834181;37,52294626;0,00000000;
00:45:07:227;-0,3448;-1,4225;-1,3314;56,33834181;37,52294626;0,00000000;
00:45:07:229;-0,3076;-1,4477;-1,4300;56,33834181;37,52294626;0,00000000;
00:45:07:234;-0,2346;-1,4983;-1,5016;56,33834181;37,52294626;0,00000000;
00:45:07:239;-0,2191;-1,5792;-1,5841;56,33834181;37,52294626;0,00000000;
00:45:07:246;-0,1915;-1,6066;-1,6565;56,33834181;37,52294626;0,00000000;
00:45:07:248;-0,2236;-1,6331;-1,6829;56,33834181;37,52294626;0,00000000;
00:45:07:254;-0,2509;-1,7020;-1,7132;56,33834181;37,52294626;0,00000000;
00:45:07:259;-0,2830;-1,7555;-1,7168;56,33834181;37,52294626;0,00000000;
00:45:07:261;-0,2830;-1,7555;-1,7168;56,33834181;37,52294626;0,00000000;
00:45:07:262;-0,2578;-1,8035;-1,7150;56,33834181;37,52294626;0,00000000;
00:45:07:267;-0,2496;-1,8269;-1,6980;56,33834181;37,52294626;0,00000000;
00:45:07:274;-0,2496;-1,8269;-1,6980;56,33834181;37,52294626;0,00000000;
00:45:07:277;-0,2556;-1,8999;-1,6228;56,33834181;37,52294626;0,00000000;
00:45:07:278;-0,2951;-1,9292;-1,5467;56,33834181;37,52294626;0,00000000;
00:45:07:281;-0,3369;-2,0009;-1,5438;56,33834181;37,52294626;0,00000000;
00:45:07:287;-0,4172;-2,0650;-1,5131;56,33834181;37,52294626;0,00000000;
00:45:07:291;-0,5191;-2,0999;-1,4764;56,33834181;37,52294626;0,00000000;
00:45:07:296;-0,5687;-2,1392;-1,4693;56,33834181;37,52294626;0,00000000;
00:45:07:303;-0,5949;-2,2044;-1,4941;56,33834181;37,52294626;0,00000000;
00:45:07:309;-0,6480;-2,2571;-1,5582;56,33834181;37,52294626;0,00000000;
00:45:07:312;-0,6442;-2,3237;-1,5944;56,33834181;37,52294626;0,00000000;
00:45:07:317;-0,6505;-2,3705;-1,6677;56,33834181;37,52294626;0,00000000;
00:45:07:324;-0,6382;-2,4097;-1,7327;56,33834181;37,52294626;0,00000000;
00:45:07:327;-0,6382;-2,4097;-1,7327;56,33834181;37,52294626;0,00000000;
00:45:07:328;-0,5903;-2,4218;-1,8184;56,33834181;37,52294626;0,00000000;
00:45:07:332;-0,5786;-2,4907;-1,8915;56,33834181;37,52294626;0,00000000;
00:45:07:337;-0,5786;-2,4907;-1,8915;56,33834181;37,52294626;0,00000000;
00:45:07:339;-0,6054;-2,5540;-1,9831;56,33834181;37,52294626;0,00000000;
00:45:07:342;-0,6373;-2,5759;-2,0405;56,33834181;37,52294626;0,00000000;
00:45:07:347;-0,6982;-2,6065;-2,0401;56,33834181;37,52294626;0,00000000;
00:45:07:353;-0,7643;-2,6244;-2,0322;56,33834181;37,52294626;0,00000000;
00:45:07:357;-0,8549;-2,6223;-2,0338;56,33834181;37,52294626;0,00000000;
00:45:07:362;-0,8866;-2,5954;-1,9776;56,33834181;37,52294626;0,00000000;
00:45:07:367;-0,8715;-2,5629;-1,9593;56,33834181;37,52294626;0,00000000;
00:45:07:373;-0,7953;-2,4938;-1,8856;56,33834181;37,52294626;0,00000000;
00:45:07:378;-0,7392;-2,4360;-1,7972;56,33834181;37,52294626;0,00000000;
00:45:07:383;-0,6787;-2,3704;-1,7653;56,33834181;37,52294626;0,00000000;
00:45:07:390;-0,6262;-2,3088;-1,7402;56,33834181;37,52294626;0,00000000;
00:45:07:399;-0,6262;-2,3088;-1,7402;56,33834181;37,52294626;0,00000000;
00:45:07:400;-0,5743;-2,2012;-1,6736;56,33834181;37,52294626;0,00000000;
00:45:07:401;-0,5538;-2,1505;-1,6207;56,33834181;37,52294626;0,00000000;
00:45:07:402;-0,5433;-2,0658;-1,5520;56,33834181;37,52294626;0,00000000;
00:45:07:403;-0,5433;-2,0658;-1,5520;56,33834181;37,52294626;0,00000000;
00:45:07:408;-0,4972;-1,9591;-1,4942;56,33834181;37,52294626;0,00000000;
00:45:07:413;-0,4683;-1,8639;-1,4641;56,33834181;37,52294626;0,00000000;
00:45:07:417;-0,4755;-1,7756;-1,4178;56,33834181;37,52294626;0,00000000;
00:45:07:423;-0,4878;-1,6892;-1,3417;56,33834181;37,52294626;0,00000000;
00:45:07:429;-0,4575;-1,6120;-1,3191;56,33834181;37,52294626;0,00000000;
00:45:07:434;-0,4586;-1,4866;-1,2232;56,33834181;37,52294626;0,00000000;
00:45:07:441;-0,4406;-1,3610;-1,1469;56,33834181;37,52294626;0,00000000;
00:45:07:443;-0,3635;-1,2446;-1,1004;56,33834181;37,52294626;0,00000000;
00:45:07:450;-0,3537;-1,0609;-1,0805;56,33834181;37,52294626;0,00000000;
00:45:07:453;-0,3658;-0,8987;-1,0875;56,33834181;37,52294626;0,00000000;
00:45:07:460;-0,3658;-0,8987;-1,0875;56,33834181;37,52294626;0,00000000;
00:45:07:462;-0,3303;-0,7698;-1,0543;56,33834181;37,52294626;0,00000000;
00:45:07:464;-0,2809;-0,5614;-0,9957;56,33834181;37,52294626;0,00000000;
00:45:07:470;-0,2809;-0,5614;-0,9957;56,33834181;37,52294626;0,00000000;
00:45:07:472;-0,2775;-0,3601;-0,8755;56,33834181;37,52294626;0,00000000;
00:45:07:474;-0,2719;-0,1729;-0,7845;56,33834181;37,52294626;0,00000000;
00:45:07:478;-0,2786;0,0431;-0,6750;56,33834181;37,52294626;0,00000000;
00:45:07:483;-0,2284;0,2235;-0,5374;56,33834181;37,52294626;0,00000000;
00:45:07:489;-0,1331;0,4112;-0,3453;56,33834181;37,52294626;0,00000000;
00:45:07:493;-0,0786;0,5822;-0,1964;56,33834181;37,52294626;0,00000000;
00:45:07:498;0,0139;0,7748;-0,0384;56,33834181;37,52294626;0,00000000;
00:45:07:504;0,0992;0,9529;0,0456;56,33834181;37,52294626;0,00000000;
00:45:07:509;0,2586;1,1356;0,1492;56,33834181;37,52294626;0,00000000;
00:45:07:514;0,4060;1,3946;0,2982;56,33834181;37,52294626;0,00000000;
00:45:07:520;0,5845;1,5814;0,3857;56,33834181;37,52294626;0,00000000;
00:45:07:523;0,5845;1,5814;0,3857;56,33834181;37,52294626;0,00000000;
00:45:07:527;0,6818;1,7559;0,5310;56,33834181;37,52294626;0,00000000;
00:45:07:528;0,8249;1,9778;0,7414;56,33834181;37,52294626;0,00000000;
00:45:07:533;0,9689;2,1247;0,9816;56,33834181;37,52294626;0,00000000;
00:45:07:534;0,9689;2,1247;0,9816;56,33834181;37,52294626;0,00000000;
00:45:07:540;1,0396;2,2997;1,2223;56,33834181;37,52294626;0,00000000;
00:45:07:543;1,0709;2,3898;1,4289;56,33834181;37,52294626;0,00000000;
00:45:07:548;1,1151;2,4526;1,6200;56,33834181;37,52294626;0,00000000;
00:45:07:553;1,0649;2,5332;1,7366;56,33834181;37,52294626;0,00000000;
00:45:07:559;1,0113;2,5622;1,8341;56,33834181;37,52294626;0,00000000;
00:45:07:563;0,9655;2,6687;1,8815;56,33834181;37,52294626;0,00000000;
00:45:07:570;0,9103;2,7232;1,9749;56,33834181;37,52294626;0,00000000;
00:45:07:575;0,8618;2,8168;2,0642;56,33834181;37,52294626;0,00000000;
00:45:07:579;0,8725;2,9253;2,0803;56,33834181;37,52294626;0,00000000;
00:45:07:583;0,9305;3,0368;2,1048;56,33834181;37,52294626;0,00000000;
00:45:07:588;0,9305;3,0368;2,1048;56,33834181;37,52294626;0,00000000;
00:45:07:590;1,0118;3,1178;2,0486;56,33834181;37,52294626;0,00000000;
00:45:07:594;1,1430;3,1567;1,9832;56,33834181;37,52294626;0,00000000;
00:45:07:598;1,1430;3,1567;1,9832;56,33834181;37,52294626;0,00000000;
00:45:07:600;1,2148;3,2064;1,8912;56,33834181;37,52294626;0,00000000;
00:45:07:605;1,3209;3,2288;1,8009;56,33834181;37,52294626;0,00000000;
00:45:07:609;1,3136;3,2696;1,6470;56,33834181;37,52294626;0,00000000;
00:45:07:614;1,3222;3,2812;1,5269;56,33834181;37,52294626;0,00000000;
00:45:07:620;1,3493;3,2735;1,4835;56,33834181;37,52294626;0,00000000;
00:45:07:626;1,3516;3,2321;1,5332;56,33834181;37,52294626;0,00000000;
00:45:07:629;1,3437;3,1546;1,6473;56,33834181;37,52294626;0,00000000;
00:45:07:633;1,2797;3,0963;1,7085;56,33834181;37,52294626;0,00000000;
00:45:07:639;1,2364;2,9804;1,8007;56,33834181;37,52294626;0,00000000;
00:45:07:644;1,2422;2,8475;1,9384;56,33834181;37,52294626;0,00000000;
00:45:07:649;1,2254;2,7144;2,0429;56,33834181;37,52294626;0,00000000;
00:45:07:654;1,2254;2,7144;2,0429;56,33834181;37,52294626;0,00000000;
00:45:07:656;1,2650;2,5569;2,1671;56,33834181;37,52294626;0,00000000;
00:45:07:661;1,2558;2,3965;2,2394;56,33834181;37,52294626;0,00000000;
00:45:07:664;1,2558;2,3965;2,2394;56,33834181;37,52294626;0,00000000;
00:45:07:665;1,2290;2,2379;2,3224;56,33834181;37,52294626;0,00000000;
00:45:07:670;1,2059;2,0500;2,3729;56,33834181;37,52294626;0,00000000;
00:45:07:676;1,1626;1,8686;2,4391;56,33834181;37,52294626;0,00000000;
00:45:07:678;1,1206;1,6933;2,4570;56,33834181;37,52294626;0,00000000;
00:45:07:684;1,0559;1,5530;2,4577;56,33834181;37,52294626;0,00000000;
00:45:07:691;1,0041;1,3711;2,4604;56,33834181;37,52294626;0,00000000;
00:45:07:694;0,9343;1,1761;2,4057;56,33834181;37,52294626;0,00000000;
00:45:07:699;0,8678;0,9921;2,2863;56,33834181;37,52294626;0,00000000;
00:45:07:704;0,7948;0,8169;2,1786;56,33834181;37,52294626;0,00000000;
00:45:07:709;0,6724;0,6505;2,0514;56,33834181;37,52294626;0,00000000;
00:45:07:714;0,6301;0,4570;1,9457;56,33834181;37,52294626;0,00000000;
00:45:07:721;0,6301;0,4570;1,9457;56,33834181;37,52294626;0,00000000;
00:45:07:723;0,5666;0,3229;1,8030;56,33834181;37,52294626;0,00000000;
00:45:07:727;0,4440;0,1477;1,6335;56,33834181;37,52294626;0,00000000;
00:45:07:729;0,4440;0,1477;1,6335;56,33834181;37,52294626;0,00000000;
00:45:07:731;0,3344;-0,0018;1,4682;56,33834181;37,52294626;0,00000000;
00:45:07:734;0,2443;-0,1657;1,3301;56,33834181;37,52294626;0,00000000;
00:45:07:741;0,1691;-0,2842;1,1693;56,33834181;37,52294626;0,00000000;
00:45:07:747;0,0609;-0,4291;1,0285;56,33834181;37,52294626;0,00000000;
00:45:07:750;-0,0275;-0,5642;0,8428;56,33834181;37,52294626;0,00000000;
00:45:07:755;-0,1396;-0,6656;0,6597;56,33834181;37,52294626;0,00000000;
00:45:07:761;-0,2204;-0,7689;0,4721;56,33834181;37,52294626;0,00000000;
00:45:07:764;-0,2745;-0,8649;0,3088;56,33834181;37,52294626;0,00000000;
00:45:07:770;-0,3575;-0,9889;0,1476;56,33834181;37,52294626;0,00000000;
00:45:07:776;-0,3547;-1,0573;0,0195;56,33834181;37,52294626;0,00000000;
00:45:07:780;-0,3712;-1,1564;-0,1589;56,33834181;37,52294626;0,00000000;
00:45:07:787;-0,3712;-1,1564;-0,1589;56,33834181;37,52294626;0,00000000;
00:45:07:788;-0,4242;-1,2380;-0,2779;56,33834181;37,52294626;0,00000000;
00:45:07:790;-0,3913;-1,3144;-0,3588;56,33834181;37,52294626;0,00000000;
00:45:07:794;-0,3913;-1,3144;-0,3588;56,33834181;37,52294626;0,00000000;
00:45:07:795;-0,3422;-1,3878;-0,4762;56,33834181;37,52294626;0,00000000;
00:45:07:799;-0,3435;-1,4153;-0,5675;56,33834181;37,52294626;0,00000000;
00:45:07:804;-0,3519;-1,5165;-0,6353;56,33834181;37,52294626;0,00000000;
00:45:07:810;-0,3654;-1,6073;-0,7831;56,33834181;37,52294626;0,00000000;
00:45:07:814;-0,4242;-1,7119;-0,8837;56,33834181;37,52294626;0,00000000;
00:45:07:820;-0,4689;-1,7320;-0,9637;56,33834181;37,52294626;0,00000000;
00:45:07:825;-0,4563;-1,7971;-0,9918;56,33834181;37,52294626;0,00000000;
00:45:07:830;-0,4823;-1,8496;-1,0230;56,33834181;37,52294626;0,00000000;
00:45:07:835;-0,5373;-1,9017;-1,0359;56,33834181;37,52294626;0,00000000;
00:45:07:841;-0,5542;-1,9485;-1,0851;56,33834181;37,52294626;0,00000000;
00:45:07:846;-0,5621;-1,9949;-1,1539;56,33834181;37,52294626;0,00000000;
00:45:07:849;-0,5621;-1,9949;-1,1539;56,33834181;37,52294626;0,00000000;
00:45:07:850;-0,5800;-2,0481;-1,2398;56,33834181;37,52294626;0,00000000;
00:45:07:857;-0,6198;-2,0864;-1,3360;56,33834181;37,52294626;0,00000000;
00:45:07:860;-0,6198;-2,0864;-1,3360;56,33834181;37,52294626;0,00000000;
00:45:07:861;-0,6242;-2,1124;-1,4446;56,33834181;37,52294626;0,00000000;
00:45:07:865;-0,6074;-2,1593;-1,5588;56,33834181;37,52294626;0,00000000;
00:45:07:871;-0,6152;-2,1507;-1,7049;56,33834181;37,52294626;0,00000000;
00:45:07:876;-0,6520;-2,1894;-1,7850;56,33834181;37,52294626;0,00000000;
00:45:07:880;-0,6747;-2,2706;-1,8997;56,33834181;37,52294626;0,00000000;
00:45:07:887;-0,7194;-2,3247;-2,0038;56,33834181;37,52294626;0,00000000;
00:45:07:892;-0,8097;-2,3709;-2,1356;56,33834181;37,52294626;0,00000000;
00:45:07:897;-0,8909;-2,4211;-2,2284;56,33834181;37,52294626;0,00000000;
00:45:07:901;-0,9606;-2,4944;-2,2823;56,33834181;37,52294626;0,00000000;
00:45:07:907;-1,0574;-2,5334;-2,3284;56,33834181;37,52294626;0,00000000;
00:45:07:910;-1,1311;-2,5715;-2,3477;56,33834181;37,52294626;0,00000000;
00:45:07:916;-1,1311;-2,5715;-2,3477;56,33834181;37,52294626;0,00000000;
00:45:07:917;-1,2058;-2,5993;-2,3209;56,33834181;37,52294626;0,00000000;
00:45:07:921;-1,2696;-2,6405;-2,3297;56,33834181;37,52294626;0,00000000;
00:45:07:925;-1,2696;-2,6405;-2,3297;56,33834181;37,52294626;0,00000000;
00:45:07:926;-1,3513;-2,6452;-2,2781;56,33834181;37,52294626;0,00000000;
00:45:07:930;-1,3887;-2,6730;-2,2785;56,33834181;37,52294626;0,00000000;
00:45:07:937;-1,4155;-2,6809;-2,2639;56,33834181;37,52294626;0,00000000;
00:45:07:942;-1,5059;-2,6739;-2,2821;56,33834181;37,52294626;0,00000000;
00:45:07:945;-1,5452;-2,6661;-2,3617;56,33834181;37,52294626;0,00000000;
00:45:07:950;-1,5649;-2,6217;-2,3664;56,33834181;37,52294626;0,00000000;
00:45:07:957;-1,5389;-2,5312;-2,3491;56,33834181;37,52294626;0,00000000;
00:45:07:961;-1,4960;-2,4137;-2,2713;56,33834181;37,52294626;0,00000000;
00:45:07:965;-1,4265;-2,3220;-2,1497;56,33834181;37,52294626;0,00000000;
00:45:07:971;-1,2754;-2,1819;-1,9866;56,33834181;37,52294626;0,00000000;
00:45:07:975;-1,1406;-2,0606;-1,7770;56,33834181;37,52294626;0,00000000;
00:45:07:980;-1,1406;-2,0606;-1,7770;56,33834181;37,52294626;0,00000000;
00:45:07:981;-0,9953;-1,9245;-1,6836;56,33834181;37,52294626;0,00000000;
00:45:07:987;-0,8608;-1,7787;-1,6820;56,33834181;37,52294626;0,00000000;
00:45:07:991;-0,8608;-1,7787;-1,6820;56,33834181;37,52294626;0,00000000;
00:45:07:993;-0,7323;-1,6276;-1,7247;56,33834181;37,52294626;0,00000000;
00:45:07:996;-0,6286;-1,5264;-1,7878;56,33834181;37,52294626;0,00000000;
00:45:08:001;-0,5116;-1,4005;-1,8287;56,33834181;37,52294626;0,00000000;
00:45:08:006;-0,3640;-1,2406;-1,8784;56,33834181;37,52294626;0,00000000;
00:45:08:011;-0,2792;-1,0944;-1,8436;56,33834181;37,52294626;0,00000000;
00:45:08:015;-0,1758;-0,9212;-1,7631;56,33834181;37,52294626;0,00000000;
00:45:08:021;-0,1062;-0,7546;-1,6796;56,33834181;37,52294626;0,00000000;
00:45:08:028;-0,0392;-0,6351;-1,5096;56,33834181;37,52294626;0,00000000;
00:45:08:031;0,0373;-0,5031;-1,3269;56,33834181;37,52294626;0,00000000;
00:45:08:038;0,0972;-0,4089;-1,1238;56,33834181;37,52294626;0,00000000;
00:45:08:043;0,1570;-0,2928;-0,8885;56,33834181;37,52294626;0,00000000;
00:45:08:046;0,1570;-0,2928;-0,8885;56,33834181;37,52294626;0,00000000;
00:45:08:047;0,1525;-0,2219;-0,6779;56,33834181;37,52294626;0,00000000;
00:45:08:051;0,1484;-0,1341;-0,4319;56,33834181;37,52294626;0,00000000;
00:45:08:058;0,1484;-0,1341;-0,4319;56,33834181;37,52294626;0,00000000;
00:45:08:060;0,1185;-0,0367;-0,2124;56,33834181;37,52294626;0,00000000;
00:45:08:062;0,0699;0,0675;0,0195;56,33834181;37,52294626;0,00000000;
00:45:08:066;0,0048;0,1908;0,2706;56,33834181;37,52294626;0,00000000;
00:45:08:074;-0,0746;0,2826;0,4602;56,33834181;37,52294626;0,00000000;
00:45:08:078;-0,1324;0,3643;0,6820;56,33834181;37,52294626;0,00000000;
00:45:08:082;-0,1593;0,4310;0,8552;56,33834181;37,52294626;0,00000000;
00:45:08:086;-0,1774;0,5231;0,9776;56,33834181;37,52294626;0,00000000;
00:45:08:091;-0,1745;0,6214;1,1095;56,33834181;37,52294626;0,00000000;
00:45:08:096;-0,1389;0,7425;1,1720;56,33834181;37,52294626;0,00000000;
00:45:08:101;-0,0947;0,8409;1,1703;56,33834181;37,52294626;0,00000000;
00:45:08:107;-0,0011;0,9642;1,1284;56,33834181;37,52294626;0,00000000;
00:45:08:112;-0,0011;0,9642;1,1284;56,33834181;37,52294626;0,00000000;
00:45:08:113;0,0725;1,0959;1,0798;56,33834181;37,52294626;0,00000000;
00:45:08:117;0,1383;1,1834;1,0241;56,33834181;37,52294626;0,00000000;
00:45:08:122;0,1383;1,1834;1,0241;56,33834181;37,52294626;0,00000000;
00:45:08:125;0,1485;1,2986;0,8917;56,33834181;37,52294626;0,00000000;
00:45:08:127;0,2708;1,3580;0,7347;56,33834181;37,52294626;0,00000000;
00:45:08:131;0,4263;1,4479;0,6173;56,33834181;37,52294626;0,00000000;
00:45:08:137;0,4960;1,5351;0,4840;56,33834181;37,52294626;0,00000000;
00:45:08:141;0,5566;1,5932;0,3249;56,33834181;37,52294626;0,00000000;
00:45:08:146;0,6346;1,6561;0,2162;56,33834181;37,52294626;0,00000000;
00:45:08:153;0,6466;1,7094;0,1286;56,33834181;37,52294626;0,00000000;
00:45:08:159;0,6309;1,6960;0,0524;56,33834181;37,52294626;0,00000000;
00:45:08:162;0,6329;1,7403;0,0855;56,33834181;37,52294626;0,00000000;
00:45:08:167;0,6405;1,7395;0,1153;56,33834181;37,52294626;0,00000000;
00:45:08:172;0,6753;1,7149;0,1420;56,33834181;37,52294626;0,00000000;
00:45:08:178;0,6753;1,7149;0,1420;56,33834181;37,52294626;0,00000000;
00:45:08:179;0,6655;1,6978;0,2304;56,33834181;37,52294626;0,00000000;
00:45:08:181;0,6588;1,6402;0,3300;56,33834181;37,52294626;0,00000000;
00:45:08:186;0,7033;1,6235;0,3907;56,33834181;37,52294626;0,00000000;
00:45:08:189;0,7033;1,6235;0,3907;56,33834181;37,52294626;0,00000000;
00:45:08:192;0,7223;1,5470;0,5325;56,33834181;37,52294626;0,00000000;
00:45:08:197;0,7138;1,4680;0,7222;56,33834181;37,52294626;0,00000000;
00:45:08:204;0,6965;1,4055;0,8115;56,33834181;37,52294626;0,00000000;
00:45:08:209;0,6349;1,3022;0,8533;56,33834181;37,52294626;0,00000000;
00:45:08:212;0,5648;1,1842;0,8933;56,33834181;37,52294626;0,00000000;
00:45:08:217;0,5339;1,0972;0,8307;56,33834181;37,52294626;0,00000000;
00:45:08:224;0,4918;0,9931;0,8525;56,33834181;37,52294626;0,00000000;
00:45:08:230;0,4311;0,9223;0,8725;56,33834181;37,52294626;0,00000000;
00:45:08:232;0,3948;0,8535;0,8527;56,33834181;37,52294626;0,00000000;
00:45:08:238;0,3828;0,7795;0,8744;56,33834181;37,52294626;0,00000000;
00:45:08:243;0,4453;0,7340;0,8513;56,33834181;37,52294626;0,00000000;
00:45:08:244;0,4453;0,7340;0,8513;56,33834181;37,52294626;0,00000000;
00:45:08:247;0,4507;0,6474;0,8434;56,33834181;37,52294626;0,00000000;
00:45:08:254;0,4710;0,5629;0,8338;56,33834181;37,52294626;0,00000000;
00:45:08:257;0,4710;0,5629;0,8338;56,33834181;37,52294626;0,00000000;
00:45:08:258;0,4967;0,5068;0,7266;56,33834181;37,52294626;0,00000000;
00:45:08:262;0,5134;0,4290;0,7180;56,33834181;37,52294626;0,00000000;
00:45:08:267;0,4616;0,3557;0,6430;56,33834181;37,52294626;0,00000000;
00:45:08:273;0,3821;0,2822;0,5826;56,33834181;37,52294626;0,00000000;
00:45:08:277;0,3010;0,1776;0,5320;56,33834181;37,52294626;0,00000000;
00:45:08:282;0,2372;0,0466;0,4601;56,33834181;37,52294626;0,00000000;
00:45:08:288;0,1070;-0,0340;0,4505;56,33834181;37,52294626;0,00000000;
00:45:08:292;-0,0251;-0,0932;0,4122;56,33834181;37,52294626;0,00000000;
00:45:08:297;-0,1139;-0,1475;0,4099;56,33834181;37,52294626;0,00000000;
00:45:08:304;-0,1788;-0,1993;0,3718;56,33834181;37,52294626;0,00000000;
00:45:08:309;-0,1788;-0,1993;0,3718;56,33834181;37,52294626;0,00000000;
00:45:08:311;-0,1767;-0,2152;0,3049;56,33834181;37,52294626;0,00000000;
00:45:08:312;-0,2108;-0,2262;0,3029;56,33834181;37,52294626;0,00000000;
00:45:08:318;-0,1636;-0,2326;0,2627;56,33834181;37,52294626;0,00000000;
00:45:08:321;-0,1636;-0,2326;0,2627;56,33834181;37,52294626;0,00000000;
00:45:08:322;-0,0494;-0,2174;0,2226;56,33834181;37,52294626;0,00000000;
00:45:08:328;0,0072;-0,2047;0,2162;56,33834181;37,52294626;0,00000000;
00:45:08:332;0,0303;-0,1994;0,2316;56,33834181;37,52294626;0,00000000;
00:45:08:338;0,0560;-0,1776;0,1925;56,33834181;37,52294626;0,00000000;
00:45:08:342;0,0581;-0,1777;0,1443;56,33834181;37,52294626;0,00000000;
00:45:08:348;-0,0042;-0,2090;0,0894;56,33834181;37,52294626;0,00000000;
00:45:08:352;-0,0616;-0,2214;0,0349;56,33834181;37,52294626;0,00000000;
00:45:08:358;-0,0975;-0,2005;-0,0239;56,33834181;37,52294626;0,00000000;
00:45:08:362;-0,1480;-0,2108;-0,0631;56,33834181;37,52294626;0,00000000;
00:45:08:367;-0,1940;-0,1902;-0,1115;56,33834181;37,52294626;0,00000000;
00:45:08:373;-0,1940;-0,1902;-0,1115;56,33834181;37,52294626;0,00000000;
00:45:08:375;-0,2405;-0,1936;-0,1691;56,33834181;37,52294626;0,00000000;
00:45:08:378;-0,2493;-0,1491;-0,2502;56,33834181;37,52294626;0,00000000;
00:45:08:383;-0,2493;-0,1491;-0,2502;56,33834181;37,52294626;0,00000000;
00:45:08:384;-0,2084;-0,1168;-0,2663;56,33834181;37,52294626;0,00000000;
00:45:08:389;-0,1419;-0,0895;-0,3107;56,33834181;37,52294626;0,00000000;
00:45:08:393;-0,1141;-0,0716;-0,3335;56,33834181;37,52294626;0,00000000;
00:45:08:398;-0,0916;-0,0634;-0,3512;56,33834181;37,52294626;0,00000000;
00:45:08:404;-0,0071;-0,0170;-0,3522;56,33834181;37,52294626;0,00000000;
00:45:08:410;0,0055;0,0104;-0,3796;56,33834181;37,52294626;0,00000000;
00:45:08:413;-0,0057;0,0641;-0,4167;56,33834181;37,52294626;0,00000000;
00:45:08:421;-0,0381;0,0581;-0,4495;56,33834181;37,52294626;0,00000000;
00:45:08:424;-0,0775;0,0404;-0,4970;56,33834181;37,52294626;0,00000000;
00:45:08:429;-0,1121;0,0686;-0,5333;56,33834181;37,52294626;0,00000000;
00:45:08:432;-0,0726;0,0875;-0,5918;56,33834181;37,52294626;0,00000000;
00:45:08:438;-0,0726;0,0875;-0,5918;56,33834181;37,52294626;0,00000000;
00:45:08:440;-0,0737;0,0996;-0,6295;56,33834181;37,52294626;0,00000000;
00:45:08:445;-0,0102;0,1504;-0,5916;56,33834181;37,52294626;0,00000000;
00:45:08:448;-0,0102;0,1504;-0,5916;56,33834181;37,52294626;0,00000000;
00:45:08:450;-0,0041;0,1512;-0,5542;56,33834181;37,52294626;0,00000000;
00:45:08:455;0,0211;0,1428;-0,4936;56,33834181;37,52294626;0,00000000;
00:45:08:460;0,0248;0,1345;-0,4502;56,33834181;37,52294626;0,00000000;
00:45:08:463;0,0668;0,1288;-0,3282;56,33834181;37,52294626;0,00000000;
00:45:08:468;0,1231;0,1542;-0,2494;56,33834181;37,52294626;0,00000000;
00:45:08:475;0,1145;0,1676;-0,2088;56,33834181;37,52294626;0,00000000;
00:45:08:482;0,1226;0,1807;-0,1249;56,33834181;37,52294626;0,00000000;
00:45:08:484;0,1354;0,1794;-0,1125;56,33834181;37,52294626;0,00000000;
00:45:08:492;0,1123;0,2113;-0,0854;56,33834181;37,52294626;0,00000000;
00:45:08:495;0,1393;0,1928;-0,0697;56,33834181;37,52294626;0,00000000;
00:45:08:499;0,1232;0,1980;-0,0778;56,33834181;37,52294626;0,00000000;
00:45:08:504;0,1232;0,1980;-0,0778;56,33834181;37,52294626;0,00000000;
00:45:08:507;0,1955;0,2247;-0,0759;56,33834181;37,52294626;0,00000000;
00:45:08:509;0,2292;0,2272;-0,0306;56,33834181;37,52294626;0,00000000;
00:45:08:514;0,2292;0,2272;-0,0306;56,33834181;37,52294626;0,00000000;
00:45:08:515;0,2606;0,2486;0,0174;56,33834181;37,52294626;0,00000000;
00:45:08:520;0,3232;0,2604;-0,0182;56,33834181;37,52294626;0,00000000;
00:45:08:525;0,3359;0,2528;0,0159;56,33834181;37,52294626;0,00000000;
00:45:08:529;0,3252;0,2665;0,0119;56,33834181;37,52294626;0,00000000;
00:45:08:533;0,3030;0,2610;0,0319;56,33834181;37,52294626;0,00000000;
00:45:08:541;0,2716;0,2578;0,0113;56,33834181;37,52294626;0,00000000;
00:45:08:544;0,2167;0,2570;0,0193;56,33834181;37,52294626;0,00000000;
00:45:08:548;0,1932;0,2154;0,0178;56,33834181;37,52294626;0,00000000;
00:45:08:555;0,2010;0,2194;0,0331;56,33834181;37,52294626;0,00000000;
00:45:08:559;0,1561;0,2207;0,0533;56,33834181;37,52294626;0,00000000;
00:45:08:563;0,1281;0,2053;0,0665;56,33834181;37,52294626;0,00000000;
00:45:08:572;0,1281;0,2053;0,0665;56,33834181;37,52294626;0,00000000;
00:45:08:575;0,1506;0,1778;0,0513;56,33834181;37,52294626;0,00000000;
00:45:08:577;0,1562;0,1668;0,0293;56,33834181;37,52294626;0,00000000;
00:45:08:579;0,1188;0,1414;0,0794;56,33834181;37,52294626;0,00000000;
00:45:08:580;0,1188;0,1414;0,0794;56,33834181;37,52294626;0,00000000;
00:45:08:587;0,0790;0,1398;0,0219;56,33834181;37,52294626;0,00000000;
00:45:08:589;0,0706;0,1167;-0,0043;56,33834181;37,52294626;0,00000000;
00:45:08:594;0,0956;0,1079;-0,0232;56,33834181;37,52294626;0,00000000;
00:45:08:600;0,1110;0,1374;-0,0349;56,33834181;37,52294626;0,00000000;
00:45:08:604;0,1170;0,1094;-0,0370;56,33834181;37,52294626;0,00000000;
00:45:08:609;0,1281;0,0837;-0,0702;56,33834181;37,52294626;0,00000000;
00:45:08:613;0,1011;0,0797;-0,1011;56,33834181;37,52294626;0,00000000;
00:45:08:620;0,0530;0,0112;-0,1059;56,33834181;37,52294626;0,00000000;
00:45:08:625;0,0100;0,0288;-0,0773;56,33834181;37,52294626;0,00000000;
00:45:08:628;-0,0210;-0,0109;-0,1038;56,33834181;37,52294626;0,00000000;
00:45:08:633;-0,0210;-0,0109;-0,1038;56,33834181;37,52294626;0,00000000;
00:45:08:634;-0,0782;-0,0530;-0,0800;56,33834181;37,52294626;0,00000000;
00:45:08:640;-0,1521;-0,0663;-0,0492;56,33834181;37,52294626;0,00000000;
00:45:08:644;-0,1521;-0,0663;-0,0492;56,33834181;37,52294626;0,00000000;
00:45:08:645;-0,1853;-0,0748;-0,0663;56,33834181;37,52294626;0,00000000;
00:45:08:649;-0,2185;-0,0974;-0,1051;56,33834181;37,52294626;0,00000000;
00:45:08:655;-0,2230;-0,1032;-0,1034;56,33834181;37,52294626;0,00000000;
00:45:08:660;-0,1823;-0,1042;-0,1257;56,33834181;37,52294626;0,00000000;
00:45:08:664;-0,1491;-0,1146;-0,1098;56,33834181;37,52294626;0,00000000;
00:45:08:672;-0,1039;-0,1201;-0,0870;56,33834181;37,52294626;0,00000000;
00:45:08:676;-0,0945;-0,1328;-0,0619;56,33834181;37,52294626;0,00000000;
00:45:08:680;-0,1090;-0,1239;-0,0583;56,33834181;37,52294626;0,00000000;
00:45:08:685;-0,0970;-0,1390;-0,0595;56,33834181;37,52294626;0,00000000;
00:45:08:694;-0,1303;-0,1446;-0,0462;56,33834181;37,52294626;0,00000000;
00:45:08:698;-0,1851;-0,1861;-0,0567;56,33834181;37,52294626;0,00000000;
00:45:08:700;-0,1851;-0,1861;-0,0567;56,33834181;37,52294626;0,00000000;
00:45:08:701;-0,2352;-0,1894;-0,0671;56,33834181;37,52294626;0,00000000;
00:45:08:710;-0,2568;-0,2046;-0,0725;56,33834181;37,52294626;0,00000000;
00:45:08:713;-0,2568;-0,2046;-0,0725;56,33834181;37,52294626;0,00000000;
00:45:08:714;-0,2929;-0,2295;-0,1135;56,33834181;37,52294626;0,00000000;
00:45:08:716;-0,2815;-0,2279;-0,1569;56,33834181;37,52294626;0,00000000;
00:45:08:727;-0,2467;-0,1833;-0,2457;56,33834181;37,52294626;0,00000000;
00:45:08:730;-0,2289;-0,1721;-0,2676;56,33834181;37,52294626;0,00000000;
00:45:08:732;-0,1970;-0,1751;-0,2608;56,33834181;37,52294626;0,00000000;
00:45:08:739;-0,1485;-0,1684;-0,2784;56,33834181;37,52294626;0,00000000;
00:45:08:741;-0,1335;-0,1520;-0,2508;56,33834181;37,52294626;0,00000000;
00:45:08:748;-0,1209;-0,1546;-0,2570;56,33834181;37,52294626;0,00000000;
00:45:08:750;-0,0962;-0,1882;-0,2061;56,33834181;37,52294626;0,00000000;
00:45:08:755;-0,1384;-0,1667;-0,2151;56,33834181;37,52294626;0,00000000;
00:45:08:760;-0,1519;-0,1405;-0,1977;56,33834181;37,52294626;0,00000000;
00:45:08:765;-0,1519;-0,1405;-0,1977;56,33834181;37,52294626;0,00000000;
00:45:08:766;-0,1559;-0,1286;-0,1875;56,33834181;37,52294626;0,00000000;
00:45:08:771;-0,1672;-0,1023;-0,2397;56,33834181;37,52294626;0,00000000;
00:45:08:776;-0,1572;-0,0976;-0,2558;56,33834181;37,52294626;0,00000000;
00:45:08:777;-0,1572;-0,0976;-0,2558;56,33834181;37,52294626;0,00000000;
00:45:08:780;-0,1305;-0,0666;-0,2073;56,33834181;37,52294626;0,00000000;
00:45:08:785;-0,0850;-0,0404;-0,2496;56,33834181;37,52294626;0,00000000;
00:45:08:792;-0,0445;0,0168;-0,2153;56,33834181;37,52294626;0,00000000;
00:45:08:795;-0,0304;0,0309;-0,1547;56,33834181;37,52294626;0,00000000;
00:45:08:800;0,0218;0,0756;-0,1600;56,33834181;37,52294626;0,00000000;
00:45:08:805;0,0191;0,1126;-0,1413;56,33834181;37,52294626;0,00000000;
00:45:08:810;0,0001;0,1349;-0,1249;56,33834181;37,52294626;0,00000000;
00:45:08:815;-0,0091;0,1617;-0,1015;56,33834181;37,52294626;0,00000000;
00:45:08:824;0,0009;0,1953;-0,1303;56,33834181;37,52294626;0,00000000;
00:45:08:827;-0,0129;0,2546;-0,1467;56,33834181;37,52294626;0,00000000;
00:45:08:831;-0,0129;0,2546;-0,1467;56,33834181;37,52294626;0,00000000;
00:45:08:832;0,0016;0,2753;-0,1745;56,33834181;37,52294626;0,00000000;
00:45:08:838;0,0183;0,3384;-0,1733;56,33834181;37,52294626;0,00000000;
00:45:08:842;0,0183;0,3384;-0,1733;56,33834181;37,52294626;0,00000000;
00:45:08:843;0,0654;0,4033;-0,2026;56,33834181;37,52294626;0,00000000;
00:45:08:845;0,0503;0,4200;-0,2646;56,33834181;37,52294626;0,00000000;
00:45:08:850;0,0928;0,4922;-0,2614;56,33834181;37,52294626;0,00000000;
00:45:08:858;0,1422;0,5859;-0,2341;56,33834181;37,52294626;0,00000000;
00:45:08:864;0,1390;0,6746;-0,1445;56,33834181;37,52294626;0,00000000;
00:45:08:866;0,1191;0,7487;-0,1003;56,33834181;37,52294626;0,00000000;
00:45:08:871;0,0826;0,8585;-0,0272;56,33834181;37,52294626;0,00000000;
00:45:08:878;0,0170;0,9800;0,0196;56,33834181;37,52294626;0,00000000;
00:45:08:881;-0,0513;1,1468;0,0859;56,33834181;37,52294626;0,00000000;
00:45:08:887;-0,0796;1,4113;0,2409;56,33834181;37,52294626;0,00000000;
00:45:08:890;-0,0060;1,7017;0,3868;56,33834181;37,52294626;0,00000000;
00:45:08:895;-0,0060;1,7017;0,3868;56,33834181;37,52294626;0,00000000;
00:45:08:895;0,0620;1,9628;0,5092;56,33834181;37,52294626;0,00000000;
00:45:08:900;0,2109;2,2017;0,5916;56,33834181;37,52294626;0,00000000;
00:45:08:905;0,2109;2,2017;0,5916;56,33834181;37,52294626;0,00000000;
00:45:08:907;0,3335;2,4376;0,7415;56,33834181;37,52294626;0,00000000;
00:45:08:910;0,3082;2,6609;0,8560;56,33834181;37,52294626;0,00000000;
00:45:08:916;0,2070;2,8309;0,9495;56,33834181;37,52294626;0,00000000;
00:45:08:921;0,0658;2,9812;1,1296;56,33834181;37,52294626;0,00000000;
00:45:08:926;-0,0775;3,1235;1,3586;56,33834181;37,52294626;0,00000000;
00:45:08:930;-0,2280;3,2363;1,5817;56,33834181;37,52294626;0,00000000;
00:45:08:937;-0,3476;3,3027;1,8732;56,33834181;37,52294626;0,00000000;
00:45:08:943;-0,4369;3,3585;2,0902;56,33834181;37,52294626;0,00000000;
00:45:08:945;-0,4721;3,4371;2,2906;56,33834181;37,52294626;0,00000000;
00:45:08:951;-0,4438;3,5002;2,4075;56,33834181;37,52294626;0,00000000;
00:45:08:958;-0,3114;3,4879;2,4818;56,33834181;37,52294626;0,00000000;
00:45:08:964;-0,1344;3,5486;2,5565;56,33834181;37,52294626;0,00000000;
00:45:08:966;-0,1344;3,5486;2,5565;56,33834181;37,52294626;0,00000000;
00:45:08:968;0,0395;3,5436;2,6077;56,33834181;37,52294626;0,00000000;
00:45:08:974;0,2227;3,5853;2,6902;56,33834181;37,52294626;0,00000000;
00:45:08:977;0,2227;3,5853;2,6902;56,33834181;37,52294626;0,00000000;
00:45:08:978;0,3747;3,5852;2,7565;56,33834181;37,52294626;0,00000000;
00:45:08:982;0,5602;3,6005;2,7900;56,33834181;37,52294626;0,00000000;
00:45:08:987;0,7224;3,6099;2,7856;56,33834181;37,52294626;0,00000000;
00:45:08:992;0,9378;3,5583;2,7439;56,33834181;37,52294626;0,00000000;
00:45:08:997;1,0895;3,4459;2,6211;56,33834181;37,52294626;0,00000000;
00:45:09:001;1,1944;3,3828;2,4800;56,33834181;37,52294626;0,00000000;
00:45:09:008;1,2911;3,2471;2,3607;56,33834181;37,52294626;0,00000000;
00:45:09:011;1,3989;3,1227;2,2655;56,33834181;37,52294626;0,00000000;
00:45:09:016;1,5488;2,9451;2,1032;56,33834181;37,52294626;0,00000000;
00:45:09:023;1,7028;2,7553;1,9022;56,33834181;37,52294626;0,00000000;
00:45:09:028;1,7028;2,7553;1,9022;56,33834181;37,52294626;0,00000000;
00:45:09:029;1,8181;2,5244;1,7420;56,33834181;37,52294626;0,00000000;
00:45:09:031;1,8998;2,2885;1,5716;56,33834181;37,52294626;0,00000000;
00:45:09:038;1,8998;2,2885;1,5716;56,33834181;37,52294626;0,00000000;
00:45:09:040;1,8811;2,0097;1,3738;56,33834181;37,52294626;0,00000000;
00:45:09:043;1,8081;1,6878;1,1322;56,33834181;37,52294626;0,00000000;
00:45:09:046;1,6637;1,3567;0,8316;56,33834181;37,52294626;0,00000000;
00:45:09:051;1,4599;1,0070;0,5842;56,33834181;37,52294626;0,00000000;
00:45:09:057;1,2728;0,6582;0,3319;56,33834181;37,52294626;0,00000000;
00:45:09:063;1,1265;0,3198;0,0678;56,33834181;37,52294626;0,00000000;
00:45:09:066;0,8814;-0,0390;-0,1685;56,33834181;37,52294626;0,00000000;
00:45:09:071;0,6671;-0,3754;-0,3592;56,33834181;37,52294626;0,00000000;
00:45:09:076;0,5471;-0,7222;-0,5758;56,33834181;37,52294626;0,00000000;
00:45:09:081;0,4186;-1,0655;-0,7668;56,33834181;37,52294626;0,00000000;
00:45:09:088;0,3576;-1,4264;-0,9211;56,33834181;37,52294626;0,00000000;
00:45:09:093;0,3576;-1,4264;-0,9211;56,33834181;37,52294626;0,00000000;
00:45:09:094;0,2976;-1,7479;-1,0717;56,33834181;37,52294626;0,00000000;
00:45:09:097;0,2332;-2,0608;-1,2001;56,33834181;37,52294626;0,00000000;
00:45:09:101;0,2198;-2,3774;-1,2435;56,33834181;37,52294626;0,00000000;
00:45:09:103;0,2198;-2,3774;-1,2435;56,33834181;37,52294626;0,00000000;
00:45:09:108;0,1947;-2,6543;-1,2678;56,33834181;37,52294626;0,00000000;
00:45:09:111;0,1662;-2,9780;-1,3030;56,33834181;37,52294626;0,00000000;
00:45:09:116;0,1167;-3,2501;-1,3337;56,33834181;37,52294626;0,00000000;
00:45:09:122;0,0011;-3,5497;-1,3690;56,33834181;37,52294626;0,00000000;
00:45:09:127;-0,1370;-3,8220;-1,3700;56,33834181;37,52294626;0,00000000;
00:45:09:131;-0,3107;-4,0811;-1,3235;56,33834181;37,52294626;0,00000000;
00:45:09:138;-0,5366;-4,3392;-1,2475;56,33834181;37,52294626;0,00000000;
00:45:09:142;-0,6936;-4,5746;-1,1639;56,33834181;37,52294626;0,00000000;
00:45:09:147;-0,8196;-4,8044;-1,1126;56,33834181;37,52294626;0,00000000;
00:45:09:152;-0,9469;-5,0141;-1,0700;56,33834181;37,52294626;0,00000000;
00:45:09:160;-0,9469;-5,0141;-1,0700;56,33834181;37,52294626;0,00000000;
00:45:09:161;-1,0275;-5,1870;-1,0001;56,33834181;37,52294626;0,00000000;
00:45:09:163;-1,0451;-5,3065;-0,9696;56,33834181;37,52294626;0,00000000;
00:45:09:167;-1,0451;-5,3065;-0,9696;56,33834181;37,52294626;0,00000000;
00:45:09:168;-1,0498;-5,4110;-1,0238;56,33834181;37,52294626;0,00000000;
00:45:09:173;-1,0271;-5,5460;-1,1055;56,33834181;37,52294626;0,00000000;
00:45:09:177;-1,0488;-5,6443;-1,1599;56,33834181;37,52294626;0,00000000;
00:45:09:182;-0,9929;-5,7228;-1,2329;56,33834181;37,52294626;0,00000000;
00:45:09:187;-0,9479;-5,7982;-1,2816;56,33834181;37,52294626;0,00000000;
00:45:09:192;-0,9182;-5,8897;-1,3110;56,33834181;37,52294626;0,00000000;
00:45:09:199;-0,8986;-5,9829;-1,3977;56,33834181;37,52294626;0,00000000;
00:45:09:204;-0,9130;-6,1830;-1,5061;56,33834181;37,52294626;0,00000000;
00:45:09:208;-1,0737;-6,3201;-1,6698;56,33834181;37,52294626;0,00000000;
00:45:09:212;-1,2826;-6,4970;-1,8555;56,33834181;37,52294626;0,00000000;
00:45:09:217;-1,5357;-6,6539;-2,0182;56,33834181;37,52294626;0,00000000;
00:45:09:227;-1,5357;-6,6539;-2,0182;56,33834181;37,52294626;0,00000000;
00:45:09:229;-1,8072;-6,7333;-2,1006;56,33834181;37,52294626;0,00000000;
00:45:09:230;-1,9969;-6,8120;-2,1980;56,33834181;37,52294626;0,00000000;
00:45:09:234;-1,9969;-6,8120;-2,1980;56,33834181;37,52294626;0,00000000;
00:45:09:235;-2,1202;-6,7297;-2,1741;56,33834181;37,52294626;0,00000000;
00:45:09:240;-2,2085;-6,6278;-2,1962;56,33834181;37,52294626;0,00000000;
00:45:09:244;-2,2161;-6,5277;-2,2544;56,33834181;37,52294626;0,00000000;
00:45:09:248;-2,2395;-6,4201;-2,2770;56,33834181;37,52294626;0,00000000;
00:45:09:254;-2,2308;-6,3264;-2,3043;56,33834181;37,52294626;0,00000000;
00:45:09:259;-2,1879;-6,1366;-2,3102;56,33834181;37,52294626;0,00000000;
00:45:09:262;-2,0698;-5,8268;-2,2803;56,33834181;37,52294626;0,00000000;
00:45:09:267;-1,9720;-5,4404;-2,1572;56,33834181;37,52294626;0,00000000;
00:45:09:272;-1,7891;-5,0395;-2,0509;56,33834181;37,52294626;0,00000000;
00:45:09:277;-1,6163;-4,5859;-1,8970;56,33834181;37,52294626;0,00000000;
00:45:09:282;-1,4649;-4,1083;-1,6904;56,33834181;37,52294626;0,00000000;
00:45:09:287;-1,4649;-4,1083;-1,6904;56,33834181;37,52294626;0,00000000;
00:45:09:289;-1,3252;-3,6690;-1,5196;56,33834181;37,52294626;0,00000000;
00:45:09:293;-1,2399;-3,1483;-1,3269;56,33834181;37,52294626;0,00000000;
00:45:09:298;-1,2399;-3,1483;-1,3269;56,33834181;37,52294626;0,00000000;
00:45:09:299;-1,1400;-2,6564;-1,1793;56,33834181;37,52294626;0,00000000;
00:45:09:304;-0,9837;-2,1791;-1,0711;56,33834181;37,52294626;0,00000000;
00:45:09:310;-0,8363;-1,7519;-0,9286;56,33834181;37,52294626;0,00000000;
00:45:09:313;-0,6638;-1,2580;-0,8417;56,33834181;37,52294626;0,00000000;
00:45:09:318;-0,5302;-0,7954;-0,7337;56,33834181;37,52294626;0,00000000;
00:45:09:330;-0,3829;-0,3761;-0,6502;56,33834181;37,52294626;0,00000000;
00:45:09:333;-0,2502;0,0047;-0,6240;56,33834181;37,52294626;0,00000000;
00:45:09:335;-0,0820;0,3686;-0,6197;56,33834181;37,52294626;0,00000000;
00:45:09:342;0,0885;0,7467;-0,6036;56,33834181;37,52294626;0,00000000;
00:45:09:346;0,2042;1,0863;-0,5014;56,33834181;37,52294626;0,00000000;
00:45:09:348;0,3254;1,4113;-0,4137;56,33834181;37,52294626;0,00000000;
00:45:09:353;0,3254;1,4113;-0,4137;56,33834181;37,52294626;0,00000000;
00:45:09:355;0,4543;1,6978;-0,3286;56,33834181;37,52294626;0,00000000;
00:45:09:359;0,5648;1,9698;-0,2099;56,33834181;37,52294626;0,00000000;
00:45:09:362;0,5648;1,9698;-0,2099;56,33834181;37,52294626;0,00000000;
00:45:09:363;0,6286;2,1936;-0,1412;56,33834181;37,52294626;0,00000000;
00:45:09:368;0,7009;2,4051;-0,0767;56,33834181;37,52294626;0,00000000;
00:45:09:374;0,8051;2,6570;0,0406;56,33834181;37,52294626;0,00000000;
00:45:09:378;0,8626;2,9014;0,1608;56,33834181;37,52294626;0,00000000;
00:45:09:383;0,9239;3,0735;0,3706;56,33834181;37,52294626;0,00000000;
00:45:09:392;1,0203;3,1804;0,4859;56,33834181;37,52294626;0,00000000;
00:45:09:395;1,0536;3,2079;0,5879;56,33834181;37,52294626;0,00000000;
00:45:09:400;1,0357;3,2158;0,6053;56,33834181;37,52294626;0,00000000;
00:45:09:405;1,0337;3,2232;0,7079;56,33834181;37,52294626;0,00000000;
00:45:09:410;0,9995;3,2686;0,7085;56,33834181;37,52294626;0,00000000;
00:45:09:414;0,9907;3,2609;0,6985;56,33834181;37,52294626;0,00000000;
00:45:09:420;0,9907;3,2609;0,6985;56,33834181;37,52294626;0,00000000;
00:45:09:423;1,0385;3,1881;0,6730;56,33834181;37,52294626;0,00000000;
00:45:09:425;1,0540;3,1151;0,5840;56,33834181;37,52294626;0,00000000;
00:45:09:430;1,0540;3,1151;0,5840;56,33834181;37,52294626;0,00000000;
00:45:09:430;1,0950;3,0393;0,5728;56,33834181;37,52294626;0,00000000;
00:45:09:433;1,1205;2,9465;0,5746;56,33834181;37,52294626;0,00000000;
00:45:09:439;1,0494;2,8365;0,5588;56,33834181;37,52294626;0,00000000;
00:45:09:444;0,9962;2,7333;0,5586;56,33834181;37,52294626;0,00000000;
00:45:09:448;0,9414;2,6106;0,5861;56,33834181;37,52294626;0,00000000;
00:45:09:453;0,8658;2,4995;0,6726;56,33834181;37,52294626;0,00000000;
00:45:09:459;0,8528;2,3834;0,6958;56,33834181;37,52294626;0,00000000;
00:45:09:464;0,8257;2,2646;0,7035;56,33834181;37,52294626;0,00000000;
00:45:09:468;0,7631;2,1503;0,7100;56,33834181;37,52294626;0,00000000;
00:45:09:476;0,7608;2,0550;0,6457;56,33834181;37,52294626;0,00000000;
00:45:09:479;0,8018;1,9262;0,5988;56,33834181;37,52294626;0,00000000;
00:45:09:484;0,8018;1,9262;0,5988;56,33834181;37,52294626;0,00000000;
00:45:09:485;0,8481;1,7973;0,5355;56,33834181;37,52294626;0,00000000;
00:45:09:493;0,9237;1,6709;0,4486;56,33834181;37,52294626;0,00000000;
00:45:09:495;0,9237;1,6709;0,4486;56,33834181;37,52294626;0,00000000;
00:45:09:497;1,0118;1,5684;0,3903;56,33834181;37,52294626;0,00000000;
00:45:09:500;1,0958;1,4541;0,3296;56,33834181;37,52294626;0,00000000;
00:45:09:504;1,1690;1,3232;0,3068;56,33834181;37,52294626;0,00000000;
00:45:09:509;1,1717;1,2162;0,2813;56,33834181;37,52294626;0,00000000;
00:45:09:514;1,1015;1,0472;0,3009;56,33834181;37,52294626;0,00000000;
00:45:09:519;0,9897;0,9070;0,3298;56,33834181;37,52294626;0,00000000;
00:45:09:525;0,8192;0,7573;0,4063;56,33834181;37,52294626;0,00000000;
00:45:09:529;0,7310;0,5622;0,4829;56,33834181;37,52294626;0,00000000;
00:45:09:533;0,6505;0,4486;0,5477;56,33834181;37,52294626;0,00000000;
00:45:09:540;0,5296;0,3300;0,6203;56,33834181;37,52294626;0,00000000;
