
time;ax;ay;az;Latitude;Longitude;Speed (m/s);
14:57:33:010;0,0000;0,0000;0,0000;0,00000000;0,00000000;0,00000000;
14:57:33:013;0,0000;0,0000;0,0000;56,33844972;37,52303706;0,00000000;
14:57:33:014;0,0000;0,0000;0,0000;56,33844972;37,52303706;0,00000000;
14:57:33:015;0,0000;0,0000;0,0000;56,33844972;37,52303706;0,00000000;
14:57:33:016;0,0000;0,0000;0,0000;56,33844972;37,52303706;0,00000000;
14:57:33:022;0,0000;0,0000;0,0000;56,33844972;37,52303706;0,00000000;
14:57:33:024;0,0000;0,0000;0,0000;56,33844972;37,52303706;0,00000000;
14:57:33:025;0,0000;0,0000;0,0000;56,33844972;37,52303706;0,00000000;
14:57:33:025;0,0000;0,0000;0,0000;56,33844972;37,52303706;0,00000000;
14:57:33:051;0,0000;0,0000;0,0000;56,33844972;37,52303706;0,00000000;
14:57:33:052;0,0000;0,0000;0,0000;56,33844972;37,52303706;0,00000000;
14:57:33:127;0,0000;0,0000;0,0000;56,33844972;37,52303706;0,00000000;
14:57:33:128;0,0000;0,0000;0,0000;56,33844972;37,52303706;0,00000000;
14:57:33:129;0,0000;0,0000;0,0000;56,33844972;37,52303706;0,00000000;
14:57:33:130;0,0000;0,0000;-0,0000;56,33844972;37,52303706;0,00000000;
14:57:33:191;0,0000;0,0000;-0,0000;56,33844972;37,52303706;0,00000000;
14:57:33:193;-0,3092;0,1525;-0,4916;56,33844972;37,52303706;0,00000000;
14:57:33:210;-0,3092;0,1525;-0,4916;56,33844972;37,52303706;0,00000000;
14:57:33:212;-0,3092;0,1525;-0,4916;56,33844972;37,52303706;0,00000000;
14:57:33:214;-0,3092;0,1525;-0,4916;56,33844972;37,52303706;0,00000000;
14:57:33:216;-0,3092;0,1525;-0,4916;56,33844972;37,52303706;0,00000000;
14:57:33:270;-0,3092;0,1525;-0,4916;56,33844972;37,52303706;0,00000000;
14:57:33:272;0,2354;0,2015;0,3019;56,33844972;37,52303706;0,00000000;
14:57:33:313;0,2354;0,2015;0,3019;56,33844972;37,52303706;0,00000000;
14:57:33:317;0,2354;0,2015;0,3019;56,33844972;37,52303706;0,00000000;
14:57:33:319;0,2354;0,2015;0,3019;56,33844972;37,52303706;0,00000000;
14:57:33:322;0,2354;0,2015;0,3019;56,33844972;37,52303706;0,00000000;
14:57:33:327;0,2354;0,2015;0,3019;56,33844972;37,52303706;0,00000000;
14:57:33:329;0,2354;0,2015;0,3019;56,33844972;37,52303706;0,00000000;
14:57:33:331;0,1502;0,1649;0,2101;56,33844972;37,52303706;0,00000000;
14:57:33:371;0,1502;0,1649;0,2101;56,33844972;37,52303706;0,00000000;
14:57:33:373;0,1020;0,0225;0,1512;56,33844972;37,52303706;0,00000000;
14:57:33:390;0,1020;0,0225;0,1512;56,33844972;37,52303706;0,00000000;
14:57:33:392;0,1020;0,0225;0,1512;56,33844972;37,52303706;0,00000000;
14:57:33:393;0,1020;0,0225;0,1512;56,33844972;37,52303706;0,00000000;
14:57:33:396;0,1020;0,0225;0,1512;56,33844972;37,52303706;0,00000000;
14:57:33:450;-0,0704;0,1121;-0,4323;56,33844972;37,52303706;0,00000000;
14:57:33:451;-0,0704;0,1121;-0,4323;56,33844972;37,52303706;0,00000000;
14:57:33:468;-0,0704;0,1121;-0,4323;56,33844972;37,52303706;0,00000000;
14:57:33:469;-0,0704;0,1121;-0,4323;56,33844972;37,52303706;0,00000000;
14:57:33:470;-0,0704;0,1121;-0,4323;56,33844972;37,52303706;0,00000000;
14:57:33:470;-0,0704;0,1121;-0,4323;56,33844972;37,52303706;0,00000000;
14:57:33:528;-0,0704;0,1121;-0,4323;56,33844972;37,52303706;0,00000000;
14:57:33:529;0,0092;-0,0041;-0,0267;56,33844972;37,52303706;0,00000000;
14:57:33:572;0,0092;-0,0041;-0,0267;56,33844972;37,52303706;0,00000000;
14:57:33:573;0,0092;-0,0041;-0,0267;56,33844972;37,52303706;0,00000000;
14:57:33:574;0,0092;-0,0041;-0,0267;56,33844972;37,52303706;0,00000000;
14:57:33:576;0,0092;-0,0041;-0,0267;56,33844972;37,52303706;0,00000000;
14:57:33:577;0,0092;-0,0041;-0,0267;56,33844972;37,52303706;0,00000000;
14:57:33:578;0,0092;-0,0041;-0,0267;56,33844972;37,52303706;0,00000000;
14:57:33:580;0,0235;0,0544;0,0235;56,33844972;37,52303706;0,00000000;
14:57:33:629;0,0235;0,0544;0,0235;56,33844972;37,52303706;0,00000000;
14:57:33:630;0,2582;0,2945;-0,2438;56,33844972;37,52303706;0,00000000;
14:57:33:651;0,2582;0,2945;-0,2438;56,33844972;37,52303706;0,00000000;
14:57:33:653;0,2582;0,2945;-0,2438;56,33844972;37,52303706;0,00000000;
14:57:33:655;0,2582;0,2945;-0,2438;56,33844972;37,52303706;0,00000000;
14:57:33:655;0,2582;0,2945;-0,2438;56,33844972;37,52303706;0,00000000;
14:57:33:710;0,2582;0,2945;-0,2438;56,33844972;37,52303706;0,00000000;
14:57:33:712;-0,2169;0,0496;-0,0488;56,33844972;37,52303706;0,00000000;
14:57:33:771;-0,2169;0,0496;-0,0488;56,33844972;37,52303706;0,00000000;
14:57:33:773;-0,2169;0,0496;-0,0488;56,33844972;37,52303706;0,00000000;
14:57:33:775;-0,2169;0,0496;-0,0488;56,33844972;37,52303706;0,00000000;
14:57:33:777;-0,2169;0,0496;-0,0488;56,33844972;37,52303706;0,00000000;
14:57:33:779;-0,2169;0,0496;-0,0488;56,33844972;37,52303706;0,00000000;
14:57:33:780;-0,2169;0,0496;-0,0488;56,33844972;37,52303706;0,00000000;
14:57:33:783;-0,2169;0,0496;-0,0488;56,33844972;37,52303706;0,00000000;
14:57:33:786;0,0702;0,3527;-0,5223;56,33844972;37,52303706;0,00000000;
14:57:33:831;0,0702;0,3527;-0,5223;56,33844972;37,52303706;0,00000000;
14:57:33:833;0,2734;0,3961;-0,5736;56,33844972;37,52303706;0,00000000;
14:57:33:849;0,2734;0,3961;-0,5736;56,33844972;37,52303706;0,00000000;
14:57:33:852;0,2734;0,3961;-0,5736;56,33844972;37,52303706;0,00000000;
14:57:33:853;0,2734;0,3961;-0,5736;56,33844972;37,52303706;0,00000000;
14:57:33:902;0,2734;0,3961;-0,5736;56,33844972;37,52303706;0,00000000;
14:57:33:904;-0,0047;-0,1275;0,3527;56,33844972;37,52303706;0,00000000;
14:57:33:914;-0,0047;-0,1275;0,3527;56,33844972;37,52303706;0,00000000;
14:57:33:916;-0,0047;-0,1275;0,3527;56,33844972;37,52303706;0,00000000;
14:57:33:919;-0,0047;-0,1275;0,3527;56,33844972;37,52303706;0,00000000;
14:57:33:962;-0,2124;-0,1750;0,7128;56,33844972;37,52303706;0,00000000;
14:57:33:967;-0,2124;-0,1750;0,7128;56,33844972;37,52303706;0,00000000;
14:57:33:991;-0,2124;-0,1750;0,7128;56,33844972;37,52303706;0,00000000;
14:57:33:993;-0,2124;-0,1750;0,7128;56,33844972;37,52303706;0,00000000;
14:57:33:995;-0,2124;-0,1750;0,7128;56,33844972;37,52303706;0,00000000;
14:57:33:997;-0,2124;-0,1750;0,7128;56,33844972;37,52303706;0,00000000;
14:57:34:000;-0,2124;-0,1750;0,7128;56,33844972;37,52303706;0,00000000;
14:57:34:003;-0,2124;-0,1750;0,7128;56,33844972;37,52303706;0,00000000;
14:57:34:005;-0,0720;-0,0699;0,1927;56,33844972;37,52303706;0,00000000;
14:57:34:056;-0,0720;-0,0699;0,1927;56,33844972;37,52303706;0,00000000;
14:57:34:057;0,5594;0,2326;-0,3243;56,33844972;37,52303706;0,00000000;
14:57:34:070;0,5594;0,2326;-0,3243;56,33844972;37,52303706;0,00000000;
14:57:34:072;0,5594;0,2326;-0,3243;56,33844972;37,52303706;0,00000000;
14:57:34:074;0,5594;0,2326;-0,3243;56,33844972;37,52303706;0,00000000;
14:57:34:097;0,1893;0,0732;-0,0780;56,33844972;37,52303706;0,00000000;
14:57:34:102;0,1893;0,0732;-0,0780;56,33844972;37,52303706;0,00000000;
14:57:34:129;0,1893;0,0732;-0,0780;56,33844972;37,52303706;0,00000000;
14:57:34:131;0,1893;0,0732;-0,0780;56,33844972;37,52303706;0,00000000;
14:57:34:153;0,1938;0,2297;-0,2867;56,33844972;37,52303706;0,00000000;
14:57:34:154;0,1938;0,2297;-0,2867;56,33844972;37,52303706;0,00000000;
14:57:34:207;0,1938;0,2297;-0,2867;56,33844972;37,52303706;0,00000000;
14:57:34:209;0,1938;0,2297;-0,2867;56,33844972;37,52303706;0,00000000;
14:57:34:211;0,1938;0,2297;-0,2867;56,33844972;37,52303706;0,00000000;
14:57:34:212;0,1938;0,2297;-0,2867;56,33844972;37,52303706;0,00000000;
14:57:34:214;0,1938;0,2297;-0,2867;56,33844972;37,52303706;0,00000000;
14:57:34:266;-0,0050;0,2871;0,0286;56,33844972;37,52303706;0,00000000;
14:57:34:269;-0,0050;0,2871;0,0286;56,33844972;37,52303706;0,00000000;
14:57:34:287;-0,0050;0,2871;0,0286;56,33844972;37,52303706;0,00000000;
14:57:34:289;-0,0050;0,2871;0,0286;56,33844972;37,52303706;0,00000000;
14:57:34:291;-0,0050;0,2871;0,0286;56,33844972;37,52303706;0,00000000;
14:57:34:292;-0,0050;0,2871;0,0286;56,33844972;37,52303706;0,00000000;
14:57:34:294;-0,0050;0,2871;0,0286;56,33844972;37,52303706;0,00000000;
14:57:34:295;-0,0780;0,1812;0,1516;56,33844972;37,52303706;0,00000000;
14:57:34:345;-0,0780;0,1812;0,1516;56,33844972;37,52303706;0,00000000;
14:57:34:347;-0,1063;0,4878;-0,5842;56,33844972;37,52303706;0,00000000;
14:57:34:350;-0,1063;0,4878;-0,5842;56,33844972;37,52303706;0,00000000;
14:57:34:353;-0,1063;0,4878;-0,5842;56,33844972;37,52303706;0,00000000;
14:57:34:355;-0,1063;0,4878;-0,5842;56,33844972;37,52303706;0,00000000;
14:57:34:404;-0,2284;0,6093;-0,8205;56,33844972;37,52303706;0,00000000;
14:57:34:406;-0,2284;0,6093;-0,8205;56,33844972;37,52303706;0,00000000;
14:57:34:423;-0,2284;0,6093;-0,8205;56,33844972;37,52303706;0,00000000;
14:57:34:425;-0,2284;0,6093;-0,8205;56,33844972;37,52303706;0,00000000;
14:57:34:426;-0,2284;0,6093;-0,8205;56,33844972;37,52303706;0,00000000;
14:57:34:427;-0,2284;0,6093;-0,8205;56,33844972;37,52303706;0,00000000;
14:57:34:486;-0,2284;0,6093;-0,8205;56,33844972;37,52303706;0,00000000;
14:57:34:488;-0,1337;0,5588;-0,5251;56,33844972;37,52303706;0,00000000;
14:57:34:505;-0,1337;0,5588;-0,5251;56,33844972;37,52303706;0,00000000;
14:57:34:507;-0,1337;0,5588;-0,5251;56,33844972;37,52303706;0,00000000;
14:57:34:508;-0,1337;0,5588;-0,5251;56,33844972;37,52303706;0,00000000;
14:57:34:510;-0,1337;0,5588;-0,5251;56,33844972;37,52303706;0,00000000;
14:57:34:555;-0,1337;0,5588;-0,5251;56,33844972;37,52303706;0,00000000;
14:57:34:557;-0,2355;0,5657;-0,8721;56,33844972;37,52303706;0,00000000;
14:57:34:561;-0,2355;0,5657;-0,8721;56,33844972;37,52303706;0,00000000;
14:57:34:563;-0,2355;0,5657;-0,8721;56,33844972;37,52303706;0,00000000;
14:57:34:565;-0,2355;0,5657;-0,8721;56,33844972;37,52303706;0,00000000;
14:57:34:607;-0,2355;0,5657;-0,8721;56,33844972;37,52303706;0,00000000;
14:57:34:609;-0,1644;0,3902;-0,7540;56,33844972;37,52303706;0,00000000;
14:57:34:638;-0,1644;0,3902;-0,7540;56,33844972;37,52303706;0,00000000;
14:57:34:639;-0,1764;0,3560;-0,6942;56,33844972;37,52303706;0,00000000;
14:57:34:641;-0,1764;0,3560;-0,6942;56,33844972;37,52303706;0,00000000;
14:57:34:643;-0,1764;0,3560;-0,6942;56,33844972;37,52303706;0,00000000;
14:57:34:645;-0,1764;0,3560;-0,6942;56,33844972;37,52303706;0,00000000;
14:57:34:646;-0,1764;0,3560;-0,6942;56,33844972;37,52303706;0,00000000;
14:57:34:696;-0,1764;0,3560;-0,6942;56,33844972;37,52303706;0,00000000;
14:57:34:699;-0,2316;0,3817;-0,7919;56,33844972;37,52303706;0,00000000;
14:57:34:720;-0,2316;0,3817;-0,7919;56,33844972;37,52303706;0,00000000;
14:57:34:722;-0,2316;0,3817;-0,7919;56,33844972;37,52303706;0,00000000;
14:57:34:724;-0,2316;0,3817;-0,7919;56,33844972;37,52303706;0,00000000;
14:57:34:726;-0,2316;0,3817;-0,7919;56,33844972;37,52303706;0,00000000;
14:57:34:786;-0,1593;0,2020;-0,1394;56,33844972;37,52303706;0,00000000;
14:57:34:790;-0,1593;0,2020;-0,1394;56,33844972;37,52303706;0,00000000;
14:57:34:791;-0,1593;0,2020;-0,1394;56,33844972;37,52303706;0,00000000;
14:57:34:793;-0,1593;0,2020;-0,1394;56,33844972;37,52303706;0,00000000;
14:57:34:795;-0,1593;0,2020;-0,1394;56,33844972;37,52303706;0,00000000;
14:57:34:836;-0,1835;0,2440;-0,2819;56,33844972;37,52303706;0,00000000;
14:57:34:839;-0,1835;0,2440;-0,2819;56,33844972;37,52303706;0,00000000;
14:57:34:855;-0,1835;0,2440;-0,2819;56,33844972;37,52303706;0,00000000;
14:57:34:857;-0,1835;0,2440;-0,2819;56,33844972;37,52303706;0,00000000;
14:57:34:858;-0,1835;0,2440;-0,2819;56,33844972;37,52303706;0,00000000;
14:57:34:859;-0,1835;0,2440;-0,2819;56,33844972;37,52303706;0,00000000;
14:57:34:926;-0,1835;0,2440;-0,2819;56,33844972;37,52303706;0,00000000;
14:57:34:927;-0,1643;0,0383;-0,1313;56,33844972;37,52303706;0,00000000;
14:57:34:928;-0,1643;0,0383;-0,1313;56,33844972;37,52303706;0,00000000;
14:57:34:929;-0,1643;0,0383;-0,1313;56,33844972;37,52303706;0,00000000;
14:57:34:931;-0,1643;0,0383;-0,1313;56,33844972;37,52303706;0,00000000;
14:57:34:987;-0,2430;-0,0875;-0,3482;56,33844972;37,52303706;0,00000000;
14:57:34:989;-0,2430;-0,0875;-0,3482;56,33844972;37,52303706;0,00000000;
14:57:34:993;-0,2430;-0,0875;-0,3482;56,33844972;37,52303706;0,00000000;
14:57:34:994;-0,2430;-0,0875;-0,3482;56,33844972;37,52303706;0,00000000;
14:57:34:995;-0,2430;-0,0875;-0,3482;56,33844972;37,52303706;0,00000000;
14:57:35:048;-0,2430;-0,0875;-0,3482;56,33844972;37,52303706;0,00000000;
14:57:35:051;-0,5142;0,4582;-0,4726;56,33844972;37,52303706;0,00000000;
14:57:35:070;-0,5142;0,4582;-0,4726;56,33844972;37,52303706;0,00000000;
14:57:35:073;-0,5142;0,4582;-0,4726;56,33844972;37,52303706;0,00000000;
14:57:35:075;-0,5142;0,4582;-0,4726;56,33844972;37,52303706;0,00000000;
14:57:35:077;-0,5142;0,4582;-0,4726;56,33844972;37,52303706;0,00000000;
14:57:35:079;-0,5142;0,4582;-0,4726;56,33844972;37,52303706;0,00000000;
14:57:35:081;-0,7680;0,4685;-0,3658;56,33844972;37,52303706;0,00000000;
14:57:35:128;-0,7680;0,4685;-0,3658;56,33844972;37,52303706;0,00000000;
14:57:35:130;0,6119;0,6494;-0,8264;56,33844972;37,52303706;0,00000000;
14:57:35:146;0,6119;0,6494;-0,8264;56,33844972;37,52303706;0,00000000;
14:57:35:149;0,6119;0,6494;-0,8264;56,33844972;37,52303706;0,00000000;
14:57:35:151;0,6119;0,6494;-0,8264;56,33844972;37,52303706;0,00000000;
14:57:35:153;0,6119;0,6494;-0,8264;56,33844972;37,52303706;0,00000000;
14:57:35:199;0,6119;0,6494;-0,8264;56,33844972;37,52303706;0,00000000;
14:57:35:201;0,2656;0,0869;0,2964;56,33844972;37,52303706;0,00000000;
14:57:35:214;0,2656;0,0869;0,2964;56,33844972;37,52303706;0,00000000;
14:57:35:216;0,2656;0,0869;0,2964;56,33844972;37,52303706;0,00000000;
14:57:35:218;0,2656;0,0869;0,2964;56,33844972;37,52303706;0,00000000;
14:57:35:259;0,2656;0,0869;0,2964;56,33844972;37,52303706;0,00000000;
14:57:35:260;0,3601;-0,0341;-0,4779;56,33844972;37,52303706;0,00000000;
14:57:35:287;0,3601;-0,0341;-0,4779;56,33844972;37,52303706;0,00000000;
14:57:35:289;0,3601;-0,0341;-0,4779;56,33844972;37,52303706;0,00000000;
14:57:35:290;0,3601;-0,0341;-0,4779;56,33844972;37,52303706;0,00000000;
14:57:35:292;0,3601;-0,0341;-0,4779;56,33844972;37,52303706;0,00000000;
14:57:35:339;0,3601;-0,0341;-0,4779;56,33844972;37,52303706;0,00000000;
14:57:35:342;-0,3211;-0,5674;-0,1503;56,33844972;37,52303706;0,00000000;
14:57:35:365;-0,3211;-0,5674;-0,1503;56,33844972;37,52303706;0,00000000;
14:57:35:368;-0,3211;-0,5674;-0,1503;56,33844972;37,52303706;0,00000000;
14:57:35:370;-0,3211;-0,5674;-0,1503;56,33844972;37,52303706;0,00000000;
14:57:35:372;-0,3211;-0,5674;-0,1503;56,33844972;37,52303706;0,00000000;
14:57:35:374;-0,3211;-0,5674;-0,1503;56,33844972;37,52303706;0,00000000;
14:57:35:376;-0,3256;-0,5833;-0,1016;56,33844972;37,52303706;0,00000000;
14:57:35:427;-0,3256;-0,5833;-0,1016;56,33844972;37,52303706;0,00000000;
14:57:35:454;-0,3256;-0,5833;-0,1016;56,33844972;37,52303706;0,00000000;
14:57:35:456;0,0254;-0,0698;0,7024;56,33844972;37,52303706;0,00000000;
14:57:35:504;0,0254;-0,0698;0,7024;56,33844972;37,52303706;0,00000000;
14:57:35:507;0,4317;0,1916;-0,0693;56,33844972;37,52303706;0,00000000;
14:57:35:509;0,4317;0,1916;-0,0693;56,33844972;37,52303706;0,00000000;
14:57:35:510;0,4317;0,1916;-0,0693;56,33844972;37,52303706;0,00000000;
14:57:35:511;0,4317;0,1916;-0,0693;56,33844972;37,52303706;0,00000000;
14:57:35:512;0,4317;0,1916;-0,0693;56,33844972;37,52303706;0,00000000;
14:57:35:513;0,4317;0,1916;-0,0693;56,33844972;37,52303706;0,00000000;
14:57:35:515;0,4317;0,1916;-0,0693;56,33844972;37,52303706;0,00000000;
14:57:35:559;0,4317;0,1916;-0,0693;56,33844972;37,52303706;0,00000000;
14:57:35:561;0,5778;0,2593;-0,1115;56,33844972;37,52303706;0,00000000;
14:57:35:582;0,5778;0,2593;-0,1115;56,33844972;37,52303706;0,00000000;
14:57:35:584;0,5778;0,2593;-0,1115;56,33844972;37,52303706;0,00000000;
14:57:35:586;0,5778;0,2593;-0,1115;56,33844972;37,52303706;0,00000000;
14:57:35:587;0,5778;0,2593;-0,1115;56,33844972;37,52303706;0,00000000;
14:57:35:645;0,5778;0,2593;-0,1115;56,33844972;37,52303706;0,00000000;
14:57:35:648;0,5080;0,1173;0,3478;56,33844972;37,52303706;0,00000000;
14:57:35:702;0,5080;0,1173;0,3478;56,33844972;37,52303706;0,00000000;
14:57:35:703;0,5080;0,1173;0,3478;56,33844972;37,52303706;0,00000000;
14:57:35:704;0,5080;0,1173;0,3478;56,33844972;37,52303706;0,00000000;
14:57:35:706;0,5080;0,1173;0,3478;56,33844972;37,52303706;0,00000000;
14:57:35:708;0,5080;0,1173;0,3478;56,33844972;37,52303706;0,00000000;
14:57:35:709;0,5080;0,1173;0,3478;56,33844972;37,52303706;0,00000000;
14:57:35:710;0,5080;0,1173;0,3478;56,33844972;37,52303706;0,00000000;
14:57:35:712;-0,0347;0,2101;0,0588;56,33844972;37,52303706;0,00000000;
14:57:35:760;-0,0347;0,2101;0,0588;56,33844972;37,52303706;0,00000000;
14:57:35:761;0,0172;0,0133;-0,5032;56,35090083;37,52131226;5,51000023;
14:57:35:778;0,0172;0,0133;-0,5032;56,35090083;37,52131226;5,51000023;
14:57:35:779;0,0172;0,0133;-0,5032;56,35090083;37,52131226;5,51000023;
14:57:35:780;0,0172;0,0133;-0,5032;56,35090083;37,52131226;5,51000023;
14:57:35:831;0,0172;0,0133;-0,5032;56,35090083;37,52131226;5,51000023;
14:57:35:835;-0,6201;-0,2008;-0,3821;56,35090083;37,52131226;5,51000023;
14:57:35:859;-0,6449;-0,2025;-0,3475;56,35090083;37,52131226;5,51000023;
14:57:35:862;-0,6449;-0,2025;-0,3475;56,35090083;37,52131226;5,51000023;
14:57:35:865;-0,6449;-0,2025;-0,3475;56,35090083;37,52131226;5,51000023;
14:57:35:867;-0,6449;-0,2025;-0,3475;56,35090083;37,52131226;5,51000023;
14:57:35:869;-0,6449;-0,2025;-0,3475;56,35090083;37,52131226;5,51000023;
14:57:35:873;-0,6449;-0,2025;-0,3475;56,35090083;37,52131226;5,51000023;
14:57:35:906;-0,6449;-0,2025;-0,3475;56,35090083;37,52131226;5,51000023;
14:57:35:908;0,2476;0,1827;-0,4259;56,35090083;37,52131226;5,51000023;
14:57:35:937;0,2476;0,1827;-0,4259;56,35090083;37,52131226;5,51000023;
14:57:35:939;0,2476;0,1827;-0,4259;56,35090083;37,52131226;5,51000023;
14:57:35:941;0,2476;0,1827;-0,4259;56,35090083;37,52131226;5,51000023;
14:57:35:944;0,2476;0,1827;-0,4259;56,35090083;37,52131226;5,51000023;
14:57:35:995;0,2476;0,1827;-0,4259;56,35090083;37,52131226;5,51000023;
14:57:35:998;0,5050;-0,0137;0,1409;56,35090083;37,52131226;5,51000023;
14:57:36:017;0,5050;-0,0137;0,1409;56,35090083;37,52131226;5,51000023;
14:57:36:019;0,5050;-0,0137;0,1409;56,35090083;37,52131226;5,51000023;
14:57:36:024;0,5050;-0,0137;0,1409;56,35090083;37,52131226;5,51000023;
14:57:36:025;0,5050;-0,0137;0,1409;56,35090083;37,52131226;5,51000023;
14:57:36:073;0,5050;-0,0137;0,1409;56,35090083;37,52131226;5,51000023;
14:57:36:076;-0,1177;-0,2163;-0,3022;56,35090083;37,52131226;5,51000023;
14:57:36:078;-0,1177;-0,2163;-0,3022;56,35090083;37,52131226;5,51000023;
14:57:36:080;-0,1177;-0,2163;-0,3022;56,35090083;37,52131226;5,51000023;
14:57:36:082;-0,1177;-0,2163;-0,3022;56,35090083;37,52131226;5,51000023;
14:57:36:106;-0,1177;-0,2163;-0,3022;56,35090083;37,52131226;5,51000023;
14:57:36:108;-0,2792;-0,1699;-0,1525;56,35090083;37,52131226;5,51000023;
14:57:36:154;-0,2686;-0,1264;-0,2023;56,35090083;37,52131226;5,51000023;
14:57:36:157;-0,2686;-0,1264;-0,2023;56,35090083;37,52131226;5,51000023;
14:57:36:158;-0,2686;-0,1264;-0,2023;56,35090083;37,52131226;5,51000023;
14:57:36:160;-0,2686;-0,1264;-0,2023;56,35090083;37,52131226;5,51000023;
14:57:36:161;-0,2686;-0,1264;-0,2023;56,35090083;37,52131226;5,51000023;
14:57:36:163;-0,2686;-0,1264;-0,2023;56,35090083;37,52131226;5,51000023;
14:57:36:224;-0,2686;-0,1264;-0,2023;56,35090083;37,52131226;5,51000023;
14:57:36:226;0,3798;0,0042;0,1645;56,35090083;37,52131226;5,51000023;
14:57:36:229;0,3798;0,0042;0,1645;56,35090083;37,52131226;5,51000023;
14:57:36:234;0,3798;0,0042;0,1645;56,35090083;37,52131226;5,51000023;
14:57:36:236;0,3798;0,0042;0,1645;56,35090083;37,52131226;5,51000023;
14:57:36:238;0,3798;0,0042;0,1645;56,35090083;37,52131226;5,51000023;
14:57:36:287;0,3798;0,0042;0,1645;56,35090083;37,52131226;5,51000023;
14:57:36:290;0,4805;-0,0864;0,2407;56,35090083;37,52131226;5,51000023;
14:57:36:292;0,4805;-0,0864;0,2407;56,35090083;37,52131226;5,51000023;
14:57:36:295;0,4805;-0,0864;0,2407;56,35090083;37,52131226;5,51000023;
14:57:36:296;0,4805;-0,0864;0,2407;56,35090083;37,52131226;5,51000023;
14:57:36:345;0,4805;-0,0864;0,2407;56,35090083;37,52131226;5,51000023;
14:57:36:348;0,2397;-0,1060;0,0754;56,35090083;37,52131226;5,51000023;
14:57:36:368;0,2397;-0,1060;0,0754;56,35090083;37,52131226;5,51000023;
14:57:36:372;0,2397;-0,1060;0,0754;56,35090083;37,52131226;5,51000023;
14:57:36:374;0,2397;-0,1060;0,0754;56,35090083;37,52131226;5,51000023;
14:57:36:376;0,2397;-0,1060;0,0754;56,35090083;37,52131226;5,51000023;
14:57:36:424;0,2397;-0,1060;0,0754;56,35090083;37,52131226;5,51000023;
14:57:36:427;-0,0269;-0,1341;-0,1721;56,35090083;37,52131226;5,51000023;
14:57:36:446;-0,0269;-0,1341;-0,1721;56,35090083;37,52131226;5,51000023;
14:57:36:448;-0,0090;-0,1435;-0,1622;56,35090083;37,52131226;5,51000023;
14:57:36:451;-0,0090;-0,1435;-0,1622;56,35090083;37,52131226;5,51000023;
14:57:36:454;-0,0090;-0,1435;-0,1622;56,35090083;37,52131226;5,51000023;
14:57:36:456;-0,0090;-0,1435;-0,1622;56,35090083;37,52131226;5,51000023;
14:57:36:459;-0,0090;-0,1435;-0,1622;56,35090083;37,52131226;5,51000023;
14:57:36:507;-0,0090;-0,1435;-0,1622;56,35090083;37,52131226;5,51000023;
14:57:36:509;-0,0287;-0,1555;-0,1382;56,35090083;37,52131226;5,51000023;
14:57:36:566;-0,0287;-0,1555;-0,1382;56,35090083;37,52131226;5,51000023;
14:57:36:569;-0,0287;-0,1555;-0,1382;56,35090083;37,52131226;5,51000023;
14:57:36:570;-0,0287;-0,1555;-0,1382;56,35090083;37,52131226;5,51000023;
14:57:36:572;-0,0287;-0,1555;-0,1382;56,35090083;37,52131226;5,51000023;
14:57:36:573;-0,0287;-0,1555;-0,1382;56,35090083;37,52131226;5,51000023;
14:57:36:575;-0,0287;-0,1555;-0,1382;56,35090083;37,52131226;5,51000023;
14:57:36:576;-0,0287;-0,1555;-0,1382;56,35090083;37,52131226;5,51000023;
14:57:36:578;0,1463;-0,0894;-0,0106;56,35090083;37,52131226;5,51000023;
14:57:36:626;0,1463;-0,0894;-0,0106;56,35090083;37,52131226;5,51000023;
14:57:36:629;0,2541;-0,1253;0,1905;56,35090083;37,52131226;5,51000023;
14:57:36:644;0,2541;-0,1253;0,1905;56,35090083;37,52131226;5,51000023;
14:57:36:648;0,2541;-0,1253;0,1905;56,35090083;37,52131226;5,51000023;
14:57:36:653;0,2541;-0,1253;0,1905;56,35090083;37,52131226;5,51000023;
14:57:36:686;0,2541;-0,1253;0,1905;56,35090083;37,52131226;5,51000023;
14:57:36:688;-0,1617;-0,2174;0,0289;56,35095704;37,52134070;6,46999979;
14:57:36:721;-0,1617;-0,2174;0,0289;56,35095704;37,52134070;6,46999979;
14:57:36:723;-0,1617;-0,2174;0,0289;56,35095704;37,52134070;6,46999979;
14:57:36:724;-0,1617;-0,2174;0,0289;56,35095704;37,52134070;6,46999979;
14:57:36:726;-0,1617;-0,2174;0,0289;56,35095704;37,52134070;6,46999979;
14:57:36:776;-0,1617;-0,2174;0,0289;56,35095704;37,52134070;6,46999979;
14:57:36:778;0,3942;-0,1161;0,2621;56,35095704;37,52134070;6,46999979;
14:57:36:801;0,3942;-0,1161;0,2621;56,35095704;37,52134070;6,46999979;
14:57:36:804;0,3942;-0,1161;0,2621;56,35095704;37,52134070;6,46999979;
14:57:36:806;0,3942;-0,1161;0,2621;56,35095704;37,52134070;6,46999979;
14:57:36:808;0,3942;-0,1161;0,2621;56,35095704;37,52134070;6,46999979;
14:57:36:857;0,3942;-0,1161;0,2621;56,35095704;37,52134070;6,46999979;
14:57:36:862;0,3730;-0,1901;0,4395;56,35095704;37,52134070;6,46999979;
14:57:36:880;0,3730;-0,1901;0,4395;56,35095704;37,52134070;6,46999979;
14:57:36:882;0,3811;-0,2275;0,4748;56,35095704;37,52134070;6,46999979;
14:57:36:885;0,3811;-0,2275;0,4748;56,35095704;37,52134070;6,46999979;
14:57:36:887;0,3811;-0,2275;0,4748;56,35095704;37,52134070;6,46999979;
14:57:36:888;0,3811;-0,2275;0,4748;56,35095704;37,52134070;6,46999979;
14:57:36:890;0,3811;-0,2275;0,4748;56,35095704;37,52134070;6,46999979;
14:57:36:939;0,3811;-0,2275;0,4748;56,35095704;37,52134070;6,46999979;
14:57:36:942;0,1372;-0,2207;0,1292;56,35095704;37,52134070;6,46999979;
14:57:36:999;0,1372;-0,2207;0,1292;56,35095704;37,52134070;6,46999979;
14:57:37:001;0,1372;-0,2207;0,1292;56,35095704;37,52134070;6,46999979;
14:57:37:003;0,1372;-0,2207;0,1292;56,35095704;37,52134070;6,46999979;
14:57:37:005;0,1372;-0,2207;0,1292;56,35095704;37,52134070;6,46999979;
14:57:37:007;0,1372;-0,2207;0,1292;56,35095704;37,52134070;6,46999979;
14:57:37:009;0,1372;-0,2207;0,1292;56,35095704;37,52134070;6,46999979;
14:57:37:010;0,1372;-0,2207;0,1292;56,35095704;37,52134070;6,46999979;
14:57:37:013;-0,4440;-0,4044;-0,3011;56,35095704;37,52134070;6,46999979;
14:57:37:058;-0,4440;-0,4044;-0,3011;56,35095704;37,52134070;6,46999979;
14:57:37:060;-0,2270;-0,0424;-0,4142;56,35095704;37,52134070;6,46999979;
14:57:37:078;-0,2270;-0,0424;-0,4142;56,35095704;37,52134070;6,46999979;
14:57:37:080;-0,2270;-0,0424;-0,4142;56,35095704;37,52134070;6,46999979;
14:57:37:083;-0,2270;-0,0424;-0,4142;56,35095704;37,52134070;6,46999979;
14:57:37:085;-0,2270;-0,0424;-0,4142;56,35095704;37,52134070;6,46999979;
14:57:37:130;-0,2270;-0,0424;-0,4142;56,35095704;37,52134070;6,46999979;
14:57:37:133;0,7701;-0,2315;0,6938;56,35095704;37,52134070;6,46999979;
14:57:37:155;0,7701;-0,2315;0,6938;56,35095704;37,52134070;6,46999979;
14:57:37:157;0,7701;-0,2315;0,6938;56,35095704;37,52134070;6,46999979;
14:57:37:159;0,7701;-0,2315;0,6938;56,35095704;37,52134070;6,46999979;
14:57:37:160;0,7701;-0,2315;0,6938;56,35095704;37,52134070;6,46999979;
14:57:37:200;0,7701;-0,2315;0,6938;56,35095704;37,52134070;6,46999979;
14:57:37:202;0,2537;-0,5436;0,3557;56,35095704;37,52134070;6,46999979;
14:57:37:234;0,2235;-0,5952;0,4374;56,35095704;37,52134070;6,46999979;
14:57:37:240;0,2235;-0,5952;0,4374;56,35095704;37,52134070;6,46999979;
14:57:37:242;0,2235;-0,5952;0,4374;56,35095704;37,52134070;6,46999979;
14:57:37:244;0,2235;-0,5952;0,4374;56,35095704;37,52134070;6,46999979;
14:57:37:246;0,2235;-0,5952;0,4374;56,35095704;37,52134070;6,46999979;
14:57:37:248;0,2235;-0,5952;0,4374;56,35095704;37,52134070;6,46999979;
14:57:37:289;0,2235;-0,5952;0,4374;56,35095704;37,52134070;6,46999979;
14:57:37:291;0,2600;-0,7655;0,2457;56,35095704;37,52134070;6,46999979;
14:57:37:312;0,2600;-0,7655;0,2457;56,35095704;37,52134070;6,46999979;
14:57:37:314;0,2600;-0,7655;0,2457;56,35095704;37,52134070;6,46999979;
14:57:37:316;0,2600;-0,7655;0,2457;56,35095704;37,52134070;6,46999979;
14:57:37:318;0,2600;-0,7655;0,2457;56,35095704;37,52134070;6,46999979;
14:57:37:372;0,2600;-0,7655;0,2457;56,35095704;37,52134070;6,46999979;
14:57:37:375;0,3981;-1,1324;1,3536;56,35095704;37,52134070;6,46999979;
14:57:37:431;0,3981;-1,1324;1,3536;56,35095704;37,52134070;6,46999979;
14:57:37:434;0,3981;-1,1324;1,3536;56,35095704;37,52134070;6,46999979;
14:57:37:437;0,3981;-1,1324;1,3536;56,35095704;37,52134070;6,46999979;
14:57:37:438;0,3981;-1,1324;1,3536;56,35095704;37,52134070;6,46999979;
14:57:37:440;0,3981;-1,1324;1,3536;56,35095704;37,52134070;6,46999979;
14:57:37:442;0,3981;-1,1324;1,3536;56,35095704;37,52134070;6,46999979;
14:57:37:445;0,3981;-1,1324;1,3536;56,35095704;37,52134070;6,46999979;
14:57:37:447;0,4733;-0,9955;1,0925;56,35095704;37,52134070;6,46999979;
14:57:37:508;0,4733;-0,9955;1,0925;56,35095704;37,52134070;6,46999979;
14:57:37:512;0,4733;-0,9955;1,0925;56,35095704;37,52134070;6,46999979;
14:57:37:514;0,4733;-0,9955;1,0925;56,35095704;37,52134070;6,46999979;
14:57:37:517;0,4733;-0,9955;1,0925;56,35095704;37,52134070;6,46999979;
14:57:37:519;0,4824;-0,8527;0,4682;56,35095704;37,52134070;6,46999979;
14:57:37:561;0,4824;-0,8527;0,4682;56,35095704;37,52134070;6,46999979;
14:57:37:564;0,4824;-0,7549;0,4722;56,35095704;37,52134070;6,46999979;
14:57:37:587;0,4824;-0,7549;0,4722;56,35095704;37,52134070;6,46999979;
14:57:37:589;0,4824;-0,7549;0,4722;56,35095704;37,52134070;6,46999979;
14:57:37:591;0,4824;-0,7549;0,4722;56,35095704;37,52134070;6,46999979;
14:57:37:622;0,4824;-0,7549;0,4722;56,35095704;37,52134070;6,46999979;
14:57:37:625;0,5326;-0,8107;0,6966;56,35095704;37,52134070;6,46999979;
14:57:37:664;0,5326;-0,8107;0,6966;56,35095704;37,52134070;6,46999979;
14:57:37:666;0,5326;-0,8107;0,6966;56,35095704;37,52134070;6,46999979;
14:57:37:668;0,5326;-0,8107;0,6966;56,35095704;37,52134070;6,46999979;
14:57:37:670;0,5326;-0,8107;0,6966;56,35095704;37,52134070;6,46999979;
14:57:37:671;0,5326;-0,8107;0,6966;56,35095704;37,52134070;6,46999979;
14:57:37:672;0,5326;-0,8107;0,6966;56,35095704;37,52134070;6,46999979;
14:57:37:674;0,5621;-0,7928;0,6599;56,35095704;37,52134070;6,46999979;
14:57:37:719;0,5621;-0,7928;0,6599;56,35095704;37,52134070;6,46999979;
14:57:37:721;0,1656;-1,0083;0,9146;56,35099111;37,52138748;7,48000002;
14:57:37:741;0,1656;-1,0083;0,9146;56,35099111;37,52138748;7,48000002;
14:57:37:743;0,1656;-1,0083;0,9146;56,35099111;37,52138748;7,48000002;
14:57:37:744;0,1656;-1,0083;0,9146;56,35099111;37,52138748;7,48000002;
14:57:37:746;0,1656;-1,0083;0,9146;56,35099111;37,52138748;7,48000002;
14:57:37:805;0,3780;-0,7749;0,6257;56,35099111;37,52138748;7,48000002;
14:57:37:808;0,3780;-0,7749;0,6257;56,35099111;37,52138748;7,48000002;
14:57:37:863;0,3780;-0,7749;0,6257;56,35099111;37,52138748;7,48000002;
14:57:37:866;0,3780;-0,7749;0,6257;56,35099111;37,52138748;7,48000002;
14:57:37:869;0,3780;-0,7749;0,6257;56,35099111;37,52138748;7,48000002;
14:57:37:870;0,3780;-0,7749;0,6257;56,35099111;37,52138748;7,48000002;
14:57:37:872;0,3780;-0,7749;0,6257;56,35099111;37,52138748;7,48000002;
14:57:37:874;0,3780;-0,7749;0,6257;56,35099111;37,52138748;7,48000002;
14:57:37:876;0,3780;-0,7749;0,6257;56,35099111;37,52138748;7,48000002;
14:57:37:878;0,6005;-0,7525;1,1956;56,35099111;37,52138748;7,48000002;
14:57:37:923;0,6005;-0,7525;1,1956;56,35099111;37,52138748;7,48000002;
14:57:37:926;0,6087;-0,7859;1,1141;56,35099111;37,52138748;7,48000002;
14:57:37:945;0,6087;-0,7859;1,1141;56,35099111;37,52138748;7,48000002;
14:57:37:948;0,6087;-0,7859;1,1141;56,35099111;37,52138748;7,48000002;
14:57:37:950;0,6087;-0,7859;1,1141;56,35099111;37,52138748;7,48000002;
14:57:37:953;0,6087;-0,7859;1,1141;56,35099111;37,52138748;7,48000002;
14:57:37:981;0,6087;-0,7859;1,1141;56,35099111;37,52138748;7,48000002;
14:57:37:984;-0,0254;-1,1003;0,8097;56,35099111;37,52138748;7,48000002;
14:57:38:020;-0,0254;-1,1003;0,8097;56,35099111;37,52138748;7,48000002;
14:57:38:022;-0,0254;-1,1003;0,8097;56,35099111;37,52138748;7,48000002;
14:57:38:025;-0,0254;-1,1003;0,8097;56,35099111;37,52138748;7,48000002;
14:57:38:026;-0,0254;-1,1003;0,8097;56,35099111;37,52138748;7,48000002;
14:57:38:028;-0,0254;-1,1003;0,8097;56,35099111;37,52138748;7,48000002;
14:57:38:029;-0,0396;-1,1238;0,8570;56,35099111;37,52138748;7,48000002;
14:57:38:074;-0,0396;-1,1238;0,8570;56,35099111;37,52138748;7,48000002;
14:57:38:076;0,1589;-1,1469;0,7649;56,35099111;37,52138748;7,48000002;
14:57:38:098;0,1589;-1,1469;0,7649;56,35099111;37,52138748;7,48000002;
14:57:38:102;0,1589;-1,1469;0,7649;56,35099111;37,52138748;7,48000002;
14:57:38:104;0,1589;-1,1469;0,7649;56,35099111;37,52138748;7,48000002;
14:57:38:107;0,1589;-1,1469;0,7649;56,35099111;37,52138748;7,48000002;
14:57:38:154;0,1589;-1,1469;0,7649;56,35099111;37,52138748;7,48000002;
14:57:38:157;0,9546;-1,3195;1,5019;56,35099111;37,52138748;7,48000002;
14:57:38:176;0,9546;-1,3195;1,5019;56,35099111;37,52138748;7,48000002;
14:57:38:179;0,9546;-1,3195;1,5019;56,35099111;37,52138748;7,48000002;
14:57:38:181;0,9546;-1,3195;1,5019;56,35099111;37,52138748;7,48000002;
14:57:38:184;0,9546;-1,3195;1,5019;56,35099111;37,52138748;7,48000002;
14:57:38:236;0,9546;-1,3195;1,5019;56,35099111;37,52138748;7,48000002;
14:57:38:239;0,4820;-1,5808;1,4368;56,35099111;37,52138748;7,48000002;
14:57:38:296;0,4820;-1,5808;1,4368;56,35099111;37,52138748;7,48000002;
14:57:38:298;0,4820;-1,5808;1,4368;56,35099111;37,52138748;7,48000002;
14:57:38:301;0,4820;-1,5808;1,4368;56,35099111;37,52138748;7,48000002;
14:57:38:302;0,4820;-1,5808;1,4368;56,35099111;37,52138748;7,48000002;
14:57:38:304;0,4820;-1,5808;1,4368;56,35099111;37,52138748;7,48000002;
14:57:38:306;0,4820;-1,5808;1,4368;56,35099111;37,52138748;7,48000002;
14:57:38:307;0,4820;-1,5808;1,4368;56,35099111;37,52138748;7,48000002;
14:57:38:309;0,3928;-1,4835;1,3794;56,35099111;37,52138748;7,48000002;
14:57:38:355;0,3928;-1,4835;1,3794;56,35099111;37,52138748;7,48000002;
14:57:38:357;0,1428;-1,5758;1,7211;56,35099111;37,52138748;7,48000002;
14:57:38:379;0,1428;-1,5758;1,7211;56,35099111;37,52138748;7,48000002;
14:57:38:382;0,1428;-1,5758;1,7211;56,35099111;37,52138748;7,48000002;
14:57:38:385;0,1428;-1,5758;1,7211;56,35099111;37,52138748;7,48000002;
14:57:38:426;0,1428;-1,5758;1,7211;56,35099111;37,52138748;7,48000002;
14:57:38:430;0,6237;-1,3098;1,4630;56,35099111;37,52138748;7,48000002;
14:57:38:452;0,6237;-1,3098;1,4630;56,35099111;37,52138748;7,48000002;
14:57:38:455;0,6237;-1,3098;1,4630;56,35099111;37,52138748;7,48000002;
14:57:38:457;0,6237;-1,3098;1,4630;56,35099111;37,52138748;7,48000002;
14:57:38:458;0,6237;-1,3098;1,4630;56,35099111;37,52138748;7,48000002;
14:57:38:460;0,6237;-1,3098;1,4630;56,35099111;37,52138748;7,48000002;
14:57:38:461;0,5741;-1,3297;1,5132;56,35099111;37,52138748;7,48000002;
14:57:38:498;0,5741;-1,3297;1,5132;56,35099111;37,52138748;7,48000002;
14:57:38:500;0,6193;-1,4560;1,4841;56,35099111;37,52138748;7,48000002;
14:57:38:531;0,6193;-1,4560;1,4841;56,35099111;37,52138748;7,48000002;
14:57:38:534;0,6193;-1,4560;1,4841;56,35099111;37,52138748;7,48000002;
14:57:38:536;0,6193;-1,4560;1,4841;56,35099111;37,52138748;7,48000002;
14:57:38:538;0,6193;-1,4560;1,4841;56,35099111;37,52138748;7,48000002;
14:57:38:586;0,6193;-1,4560;1,4841;56,35099111;37,52138748;7,48000002;
14:57:38:588;0,5520;-1,2696;1,1552;56,35099111;37,52138748;7,48000002;
14:57:38:610;0,5520;-1,2696;1,1552;56,35099111;37,52138748;7,48000002;
14:57:38:614;0,5520;-1,2696;1,1552;56,35099111;37,52138748;7,48000002;
14:57:38:616;0,5520;-1,2696;1,1552;56,35099111;37,52138748;7,48000002;
14:57:38:618;0,5520;-1,2696;1,1552;56,35099111;37,52138748;7,48000002;
14:57:38:667;0,5520;-1,2696;1,1552;56,35099111;37,52138748;7,48000002;
14:57:38:668;0,0551;-1,4774;1,2993;56,35105814;37,52142832;7,25000000;
14:57:38:726;0,0551;-1,4774;1,2993;56,35105814;37,52142832;7,25000000;
14:57:38:728;0,0551;-1,4774;1,2993;56,35105814;37,52142832;7,25000000;
14:57:38:730;0,0551;-1,4774;1,2993;56,35105814;37,52142832;7,25000000;
14:57:38:731;0,0551;-1,4774;1,2993;56,35105814;37,52142832;7,25000000;
14:57:38:732;0,0551;-1,4774;1,2993;56,35105814;37,52142832;7,25000000;
14:57:38:733;0,0551;-1,4774;1,2993;56,35105814;37,52142832;7,25000000;
14:57:38:735;0,0551;-1,4774;1,2993;56,35105814;37,52142832;7,25000000;
14:57:38:737;-0,0328;-1,5326;1,6146;56,35105814;37,52142832;7,25000000;
14:57:38:759;-0,0328;-1,5326;1,6146;56,35105814;37,52142832;7,25000000;
14:57:38:760;-0,2506;-1,8678;1,5040;56,35105814;37,52142832;7,25000000;
14:57:38:806;-0,2506;-1,8678;1,5040;56,35105814;37,52142832;7,25000000;
14:57:38:809;-0,5550;-1,8647;1,7957;56,35105814;37,52142832;7,25000000;
14:57:38:812;-0,5550;-1,8647;1,7957;56,35105814;37,52142832;7,25000000;
14:57:38:814;-0,5550;-1,8647;1,7957;56,35105814;37,52142832;7,25000000;
14:57:38:816;-0,5550;-1,8647;1,7957;56,35105814;37,52142832;7,25000000;
14:57:38:817;-0,5550;-1,8647;1,7957;56,35105814;37,52142832;7,25000000;
14:57:38:857;-0,5550;-1,8647;1,7957;56,35105814;37,52142832;7,25000000;
14:57:38:859;-0,5461;-1,5807;0,7995;56,35105814;37,52142832;7,25000000;
14:57:38:883;-0,5461;-1,5807;0,7995;56,35105814;37,52142832;7,25000000;
14:57:38:887;-0,5461;-1,5807;0,7995;56,35105814;37,52142832;7,25000000;
14:57:38:890;-0,5461;-1,5807;0,7995;56,35105814;37,52142832;7,25000000;
14:57:38:918;-0,5461;-1,5807;0,7995;56,35105814;37,52142832;7,25000000;
14:57:38:922;-0,2302;-1,3053;0,2652;56,35105814;37,52142832;7,25000000;
14:57:38:961;-0,2302;-1,3053;0,2652;56,35105814;37,52142832;7,25000000;
14:57:38:964;-0,2302;-1,3053;0,2652;56,35105814;37,52142832;7,25000000;
14:57:38:966;-0,2302;-1,3053;0,2652;56,35105814;37,52142832;7,25000000;
14:57:38:968;-0,2302;-1,3053;0,2652;56,35105814;37,52142832;7,25000000;
14:57:38:970;-0,2302;-1,3053;0,2652;56,35105814;37,52142832;7,25000000;
14:57:39:021;-0,2302;-1,3053;0,2652;56,35105814;37,52142832;7,25000000;
14:57:39:023;0,1358;-1,6805;0,3596;56,35105814;37,52142832;7,25000000;
14:57:39:041;0,1358;-1,6805;0,3596;56,35105814;37,52142832;7,25000000;
14:57:39:045;0,1358;-1,6805;0,3596;56,35105814;37,52142832;7,25000000;
14:57:39:047;0,1358;-1,6805;0,3596;56,35105814;37,52142832;7,25000000;
14:57:39:049;0,1358;-1,6805;0,3596;56,35105814;37,52142832;7,25000000;
14:57:39:051;0,1358;-1,6805;0,3596;56,35105814;37,52142832;7,25000000;
14:57:39:053;-0,0633;-1,3426;0,1331;56,35105814;37,52142832;7,25000000;
14:57:39:099;-0,0633;-1,3426;0,1331;56,35105814;37,52142832;7,25000000;
14:57:39:101;0,2744;-1,1816;0,9725;56,35105814;37,52142832;7,25000000;
14:57:39:104;0,2744;-1,1816;0,9725;56,35105814;37,52142832;7,25000000;
14:57:39:106;0,2744;-1,1816;0,9725;56,35105814;37,52142832;7,25000000;
14:57:39:107;0,2744;-1,1816;0,9725;56,35105814;37,52142832;7,25000000;
14:57:39:159;0,2744;-1,1816;0,9725;56,35105814;37,52142832;7,25000000;
14:57:39:162;0,3673;-1,1203;0,9987;56,35105814;37,52142832;7,25000000;
14:57:39:179;0,3673;-1,1203;0,9987;56,35105814;37,52142832;7,25000000;
14:57:39:181;0,3673;-1,1203;0,9987;56,35105814;37,52142832;7,25000000;
14:57:39:185;0,3673;-1,1203;0,9987;56,35105814;37,52142832;7,25000000;
14:57:39:230;0,3673;-1,1203;0,9987;56,35105814;37,52142832;7,25000000;
14:57:39:234;0,8640;-0,7868;1,3672;56,35105814;37,52142832;7,25000000;
14:57:39:257;0,8640;-0,7868;1,3672;56,35105814;37,52142832;7,25000000;
14:57:39:259;0,8640;-0,7868;1,3672;56,35105814;37,52142832;7,25000000;
14:57:39:261;0,8640;-0,7868;1,3672;56,35105814;37,52142832;7,25000000;
14:57:39:264;0,8640;-0,7868;1,3672;56,35105814;37,52142832;7,25000000;
14:57:39:284;0,8640;-0,7868;1,3672;56,35105814;37,52142832;7,25000000;
14:57:39:287;0,8894;-0,8429;1,6254;56,35105814;37,52142832;7,25000000;
14:57:39:316;0,8894;-0,8429;1,6254;56,35105814;37,52142832;7,25000000;
14:57:39:318;0,8894;-0,8429;1,6254;56,35105814;37,52142832;7,25000000;
14:57:39:345;0,6666;-0,7379;1,1899;56,35105814;37,52142832;7,25000000;
14:57:39:348;0,6666;-0,7379;1,1899;56,35105814;37,52142832;7,25000000;
14:57:39:394;0,6666;-0,7379;1,1899;56,35105814;37,52142832;7,25000000;
14:57:39:397;0,6666;-0,7379;1,1899;56,35105814;37,52142832;7,25000000;
14:57:39:398;0,6666;-0,7379;1,1899;56,35105814;37,52142832;7,25000000;
14:57:39:400;0,6666;-0,7379;1,1899;56,35105814;37,52142832;7,25000000;
14:57:39:402;0,6666;-0,7379;1,1899;56,35105814;37,52142832;7,25000000;
14:57:39:451;0,6666;-0,7379;1,1899;56,35105814;37,52142832;7,25000000;
14:57:39:454;0,5598;-0,7603;1,3035;56,35105814;37,52142832;7,25000000;
14:57:39:473;0,5598;-0,7603;1,3035;56,35105814;37,52142832;7,25000000;
14:57:39:476;0,5598;-0,7603;1,3035;56,35105814;37,52142832;7,25000000;
14:57:39:478;0,5598;-0,7603;1,3035;56,35105814;37,52142832;7,25000000;
14:57:39:480;0,5598;-0,7603;1,3035;56,35105814;37,52142832;7,25000000;
14:57:39:481;0,5598;-0,7603;1,3035;56,35105814;37,52142832;7,25000000;
14:57:39:483;0,7425;-0,7363;1,1307;56,35105814;37,52142832;7,25000000;
14:57:39:532;0,7425;-0,7363;1,1307;56,35105814;37,52142832;7,25000000;
14:57:39:535;0,6748;-0,9190;0,5710;56,35105814;37,52142832;7,25000000;
14:57:39:605;0,6748;-0,9190;0,5710;56,35105814;37,52142832;7,25000000;
14:57:39:608;0,6748;-0,9190;0,5710;56,35105814;37,52142832;7,25000000;
14:57:39:610;0,6748;-0,9190;0,5710;56,35105814;37,52142832;7,25000000;
14:57:39:612;0,6748;-0,9190;0,5710;56,35105814;37,52142832;7,25000000;
14:57:39:613;0,6748;-0,9190;0,5710;56,35105814;37,52142832;7,25000000;
14:57:39:615;0,6748;-0,9190;0,5710;56,35105814;37,52142832;7,25000000;
14:57:39:617;0,6748;-0,9190;0,5710;56,35105814;37,52142832;7,25000000;
14:57:39:620;0,6748;-0,9190;0,5710;56,35105814;37,52142832;7,25000000;
14:57:39:624;0,1791;-1,0699;2,4778;56,35105814;37,52142832;7,25000000;
14:57:39:666;0,1791;-1,0699;2,4778;56,35105814;37,52142832;7,25000000;
14:57:39:670;-0,0367;-1,0955;1,8010;56,35111212;37,52146010;6,17000008;
14:57:39:679;-0,0367;-1,0955;1,8010;56,35111212;37,52146010;6,17000008;
14:57:39:680;-0,0367;-1,0955;1,8010;56,35111212;37,52146010;6,17000008;
14:57:39:681;-0,0367;-1,0955;1,8010;56,35111212;37,52146010;6,17000008;
14:57:39:731;-0,0367;-1,0955;1,8010;56,35111212;37,52146010;6,17000008;
14:57:39:733;-0,5819;-1,7428;1,0788;56,35111212;37,52146010;6,17000008;
14:57:39:746;-0,5819;-1,7428;1,0788;56,35111212;37,52146010;6,17000008;
14:57:39:747;-0,5819;-1,7428;1,0788;56,35111212;37,52146010;6,17000008;
14:57:39:748;-0,5819;-1,7428;1,0788;56,35111212;37,52146010;6,17000008;
14:57:39:793;-0,5819;-1,7428;1,0788;56,35111212;37,52146010;6,17000008;
14:57:39:796;-1,0622;-2,1561;0,0774;56,35111212;37,52146010;6,17000008;
14:57:39:825;-1,0622;-2,1561;0,0774;56,35111212;37,52146010;6,17000008;
14:57:39:828;-1,1123;-2,1494;0,1425;56,35111212;37,52146010;6,17000008;
14:57:39:830;-1,1123;-2,1494;0,1425;56,35111212;37,52146010;6,17000008;
14:57:39:834;-1,1123;-2,1494;0,1425;56,35111212;37,52146010;6,17000008;
14:57:39:836;-1,1123;-2,1494;0,1425;56,35111212;37,52146010;6,17000008;
14:57:39:839;-1,1123;-2,1494;0,1425;56,35111212;37,52146010;6,17000008;
14:57:39:841;-1,1123;-2,1494;0,1425;56,35111212;37,52146010;6,17000008;
14:57:39:882;-1,1123;-2,1494;0,1425;56,35111212;37,52146010;6,17000008;
14:57:39:885;0,6094;-0,3315;0,2415;56,35111212;37,52146010;6,17000008;
14:57:39:904;0,6094;-0,3315;0,2415;56,35111212;37,52146010;6,17000008;
14:57:39:906;0,6094;-0,3315;0,2415;56,35111212;37,52146010;6,17000008;
14:57:39:908;0,6094;-0,3315;0,2415;56,35111212;37,52146010;6,17000008;
14:57:39:910;0,6094;-0,3315;0,2415;56,35111212;37,52146010;6,17000008;
14:57:39:963;0,6094;-0,3315;0,2415;56,35111212;37,52146010;6,17000008;
14:57:39:966;-0,2766;-1,2457;1,6317;56,35111212;37,52146010;6,17000008;
14:57:40:023;-0,2766;-1,2457;1,6317;56,35111212;37,52146010;6,17000008;
14:57:40:026;-0,2766;-1,2457;1,6317;56,35111212;37,52146010;6,17000008;
14:57:40:028;-0,2766;-1,2457;1,6317;56,35111212;37,52146010;6,17000008;
14:57:40:029;-0,2766;-1,2457;1,6317;56,35111212;37,52146010;6,17000008;
14:57:40:031;-0,2766;-1,2457;1,6317;56,35111212;37,52146010;6,17000008;
14:57:40:034;-0,2766;-1,2457;1,6317;56,35111212;37,52146010;6,17000008;
14:57:40:036;-0,2766;-1,2457;1,6317;56,35111212;37,52146010;6,17000008;
14:57:40:038;-0,0522;-0,8814;0,9739;56,35111212;37,52146010;6,17000008;
14:57:40:069;-0,1048;-0,8363;0,9708;56,35111212;37,52146010;6,17000008;
14:57:40:071;-0,1048;-0,8363;0,9708;56,35111212;37,52146010;6,17000008;
14:57:40:102;-0,1048;-0,8363;0,9708;56,35111212;37,52146010;6,17000008;
14:57:40:105;-0,1048;-0,8363;0,9708;56,35111212;37,52146010;6,17000008;
14:57:40:107;-0,1048;-0,8363;0,9708;56,35111212;37,52146010;6,17000008;
14:57:40:154;-0,1048;-0,8363;0,9708;56,35111212;37,52146010;6,17000008;
14:57:40:156;-0,4488;-1,5922;0,8826;56,35111212;37,52146010;6,17000008;
14:57:40:182;-0,4488;-1,5922;0,8826;56,35111212;37,52146010;6,17000008;
14:57:40:185;-0,4488;-1,5922;0,8826;56,35111212;37,52146010;6,17000008;
14:57:40:188;-0,4488;-1,5922;0,8826;56,35111212;37,52146010;6,17000008;
14:57:40:189;-0,4488;-1,5922;0,8826;56,35111212;37,52146010;6,17000008;
14:57:40:235;-0,4488;-1,5922;0,8826;56,35111212;37,52146010;6,17000008;
14:57:40:238;0,0055;-1,2237;1,0351;56,35111212;37,52146010;6,17000008;
14:57:40:261;0,0055;-1,2237;1,0351;56,35111212;37,52146010;6,17000008;
14:57:40:264;0,0055;-1,2237;1,0351;56,35111212;37,52146010;6,17000008;
14:57:40:267;0,0055;-1,2237;1,0351;56,35111212;37,52146010;6,17000008;
14:57:40:269;0,0055;-1,2237;1,0351;56,35111212;37,52146010;6,17000008;
14:57:40:271;0,0055;-1,2237;1,0351;56,35111212;37,52146010;6,17000008;
14:57:40:273;-0,0308;-1,2177;1,0492;56,35111212;37,52146010;6,17000008;
14:57:40:313;-0,0308;-1,2177;1,0492;56,35111212;37,52146010;6,17000008;
14:57:40:316;-0,4187;-1,0219;0,4598;56,35111212;37,52146010;6,17000008;
14:57:40:329;-0,4187;-1,0219;0,4598;56,35111212;37,52146010;6,17000008;
14:57:40:331;-0,4187;-1,0219;0,4598;56,35111212;37,52146010;6,17000008;
14:57:40:334;-0,4187;-1,0219;0,4598;56,35111212;37,52146010;6,17000008;
14:57:40:336;-0,4187;-1,0219;0,4598;56,35111212;37,52146010;6,17000008;
14:57:40:385;-0,4187;-1,0219;0,4598;56,35111212;37,52146010;6,17000008;
14:57:40:386;-0,1359;-1,0397;0,9329;56,35111212;37,52146010;6,17000008;
14:57:40:394;-0,1359;-1,0397;0,9329;56,35111212;37,52146010;6,17000008;
14:57:40:395;-0,1359;-1,0397;0,9329;56,35111212;37,52146010;6,17000008;
14:57:40:398;-0,1359;-1,0397;0,9329;56,35111212;37,52146010;6,17000008;
14:57:40:446;-0,1359;-1,0397;0,9329;56,35111212;37,52146010;6,17000008;
14:57:40:450;-0,5954;-1,1975;0,4742;56,35111212;37,52146010;6,17000008;
14:57:40:472;-0,5954;-1,1975;0,4742;56,35111212;37,52146010;6,17000008;
14:57:40:475;-0,5954;-1,1975;0,4742;56,35111212;37,52146010;6,17000008;
14:57:40:477;-0,5954;-1,1975;0,4742;56,35111212;37,52146010;6,17000008;
14:57:40:479;-0,5954;-1,1975;0,4742;56,35111212;37,52146010;6,17000008;
14:57:40:527;-0,0435;-0,9894;1,2078;56,35111212;37,52146010;6,17000008;
14:57:40:530;-0,0435;-0,9894;1,2078;56,35111212;37,52146010;6,17000008;
14:57:40:552;-0,0821;-0,9832;1,2181;56,35111212;37,52146010;6,17000008;
14:57:40:556;-0,0821;-0,9832;1,2181;56,35111212;37,52146010;6,17000008;
14:57:40:557;-0,0821;-0,9832;1,2181;56,35111212;37,52146010;6,17000008;
14:57:40:559;-0,0821;-0,9832;1,2181;56,35111212;37,52146010;6,17000008;
14:57:40:561;-0,0821;-0,9832;1,2181;56,35111212;37,52146010;6,17000008;
14:57:40:562;-0,0821;-0,9832;1,2181;56,35111212;37,52146010;6,17000008;
14:57:40:614;-0,0821;-0,9832;1,2181;56,35111212;37,52146010;6,17000008;
14:57:40:640;-0,0821;-0,9832;1,2181;56,35111212;37,52146010;6,17000008;
14:57:40:642;0,1108;-0,6137;0,6969;56,35111212;37,52146010;6,17000008;
14:57:40:689;0,1108;-0,6137;0,6969;56,35111212;37,52146010;6,17000008;
14:57:40:691;-0,3360;-0,7935;0,3460;56,35115763;37,52148358;4,51000023;
14:57:40:694;-0,3360;-0,7935;0,3460;56,35115763;37,52148358;4,51000023;
14:57:40:695;-0,3360;-0,7935;0,3460;56,35115763;37,52148358;4,51000023;
14:57:40:696;-0,3360;-0,7935;0,3460;56,35115763;37,52148358;4,51000023;
14:57:40:697;-0,3360;-0,7935;0,3460;56,35115763;37,52148358;4,51000023;
14:57:40:698;-0,3360;-0,7935;0,3460;56,35115763;37,52148358;4,51000023;
14:57:40:699;-0,3360;-0,7935;0,3460;56,35115763;37,52148358;4,51000023;
14:57:40:747;-0,3360;-0,7935;0,3460;56,35115763;37,52148358;4,51000023;
14:57:40:748;-0,0865;-0,3498;0,1686;56,35115763;37,52148358;4,51000023;
14:57:40:768;-0,0865;-0,3498;0,1686;56,35115763;37,52148358;4,51000023;
14:57:40:769;-0,0865;-0,3498;0,1686;56,35115763;37,52148358;4,51000023;
14:57:40:771;-0,0865;-0,3498;0,1686;56,35115763;37,52148358;4,51000023;
14:57:40:772;-0,0865;-0,3498;0,1686;56,35115763;37,52148358;4,51000023;
14:57:40:829;-0,0865;-0,3498;0,1686;56,35115763;37,52148358;4,51000023;
14:57:40:832;0,3520;-0,1244;0,4238;56,35115763;37,52148358;4,51000023;
14:57:40:844;0,3520;-0,1244;0,4238;56,35115763;37,52148358;4,51000023;
14:57:40:847;0,3520;-0,1244;0,4238;56,35115763;37,52148358;4,51000023;
14:57:40:849;0,3520;-0,1244;0,4238;56,35115763;37,52148358;4,51000023;
14:57:40:898;0,3520;-0,1244;0,4238;56,35115763;37,52148358;4,51000023;
14:57:40:900;-0,1587;-0,3574;-0,1011;56,35115763;37,52148358;4,51000023;
14:57:40:921;-0,1587;-0,3574;-0,1011;56,35115763;37,52148358;4,51000023;
14:57:40:924;-0,1922;-0,3404;-0,0825;56,35115763;37,52148358;4,51000023;
14:57:40:927;-0,1922;-0,3404;-0,0825;56,35115763;37,52148358;4,51000023;
14:57:40:928;-0,1922;-0,3404;-0,0825;56,35115763;37,52148358;4,51000023;
14:57:40:930;-0,1922;-0,3404;-0,0825;56,35115763;37,52148358;4,51000023;
14:57:40:931;-0,1922;-0,3404;-0,0825;56,35115763;37,52148358;4,51000023;
14:57:40:979;-0,1922;-0,3404;-0,0825;56,35115763;37,52148358;4,51000023;
14:57:40:981;0,0588;0,0305;0,2071;56,35115763;37,52148358;4,51000023;
14:57:41:001;0,0588;0,0305;0,2071;56,35115763;37,52148358;4,51000023;
14:57:41:004;0,0588;0,0305;0,2071;56,35115763;37,52148358;4,51000023;
14:57:41:006;0,0588;0,0305;0,2071;56,35115763;37,52148358;4,51000023;
14:57:41:007;0,0588;0,0305;0,2071;56,35115763;37,52148358;4,51000023;
14:57:41:057;0,0588;0,0305;0,2071;56,35115763;37,52148358;4,51000023;
14:57:41:059;-0,0009;-0,1729;-0,1277;56,35115763;37,52148358;4,51000023;
14:57:41:090;-0,0009;-0,1729;-0,1277;56,35115763;37,52148358;4,51000023;
14:57:41:092;-0,0009;-0,1729;-0,1277;56,35115763;37,52148358;4,51000023;
14:57:41:093;-0,0009;-0,1729;-0,1277;56,35115763;37,52148358;4,51000023;
14:57:41:094;-0,0009;-0,1729;-0,1277;56,35115763;37,52148358;4,51000023;
14:57:41:095;-0,0009;-0,1729;-0,1277;56,35115763;37,52148358;4,51000023;
14:57:41:096;-0,0009;-0,1729;-0,1277;56,35115763;37,52148358;4,51000023;
14:57:41:097;-0,0211;-0,1646;-0,1154;56,35115763;37,52148358;4,51000023;
14:57:41:160;-0,0211;-0,1646;-0,1154;56,35115763;37,52148358;4,51000023;
14:57:41:162;0,0747;-0,0393;0,0981;56,35115763;37,52148358;4,51000023;
14:57:41:164;0,0747;-0,0393;0,0981;56,35115763;37,52148358;4,51000023;
14:57:41:166;0,0747;-0,0393;0,0981;56,35115763;37,52148358;4,51000023;
14:57:41:168;0,0747;-0,0393;0,0981;56,35115763;37,52148358;4,51000023;
14:57:41:220;0,0747;-0,0393;0,0981;56,35115763;37,52148358;4,51000023;
14:57:41:223;0,1493;-0,0081;0,0561;56,35115763;37,52148358;4,51000023;
14:57:41:241;0,1493;-0,0081;0,0561;56,35115763;37,52148358;4,51000023;
14:57:41:244;0,1493;-0,0081;0,0561;56,35115763;37,52148358;4,51000023;
14:57:41:246;0,1493;-0,0081;0,0561;56,35115763;37,52148358;4,51000023;
14:57:41:247;0,1493;-0,0081;0,0561;56,35115763;37,52148358;4,51000023;
14:57:41:301;0,1493;-0,0081;0,0561;56,35115763;37,52148358;4,51000023;
14:57:41:304;-0,2148;-0,1747;0,4646;56,35115763;37,52148358;4,51000023;
14:57:41:360;-0,2148;-0,1747;0,4646;56,35115763;37,52148358;4,51000023;
14:57:41:361;-0,2148;-0,1747;0,4646;56,35115763;37,52148358;4,51000023;
14:57:41:363;-0,2148;-0,1747;0,4646;56,35115763;37,52148358;4,51000023;
14:57:41:364;-0,2148;-0,1747;0,4646;56,35115763;37,52148358;4,51000023;
14:57:41:365;-0,2148;-0,1747;0,4646;56,35115763;37,52148358;4,51000023;
14:57:41:366;-0,2148;-0,1747;0,4646;56,35115763;37,52148358;4,51000023;
14:57:41:367;-0,2148;-0,1747;0,4646;56,35115763;37,52148358;4,51000023;
14:57:41:367;0,0643;0,0583;-0,6032;56,35115763;37,52148358;4,51000023;
14:57:41:420;0,0643;0,0583;-0,6032;56,35115763;37,52148358;4,51000023;
14:57:41:422;0,1188;0,0280;-1,4490;56,35115763;37,52148358;4,51000023;
14:57:41:444;0,1188;0,0280;-1,4490;56,35115763;37,52148358;4,51000023;
14:57:41:446;0,1188;0,0280;-1,4490;56,35115763;37,52148358;4,51000023;
14:57:41:449;0,1188;0,0280;-1,4490;56,35115763;37,52148358;4,51000023;
14:57:41:451;0,1188;0,0280;-1,4490;56,35115763;37,52148358;4,51000023;
14:57:41:491;0,1188;0,0280;-1,4490;56,35115763;37,52148358;4,51000023;
14:57:41:493;0,4285;0,4326;0,0274;56,35115763;37,52148358;4,51000023;
14:57:41:553;0,4285;0,4326;0,0274;56,35115763;37,52148358;4,51000023;
14:57:41:555;0,4285;0,4326;0,0274;56,35115763;37,52148358;4,51000023;
14:57:41:557;0,4285;0,4326;0,0274;56,35115763;37,52148358;4,51000023;
14:57:41:559;0,4285;0,4326;0,0274;56,35115763;37,52148358;4,51000023;
14:57:41:560;0,4285;0,4326;0,0274;56,35115763;37,52148358;4,51000023;
14:57:41:562;0,4285;0,4326;0,0274;56,35115763;37,52148358;4,51000023;
14:57:41:563;0,4285;0,4326;0,0274;56,35115763;37,52148358;4,51000023;
14:57:41:565;-0,3545;0,3699;1,3012;56,35115763;37,52148358;4,51000023;
14:57:41:604;-0,3545;0,3699;1,3012;56,35115763;37,52148358;4,51000023;
14:57:41:606;-0,9351;-0,4283;1,7489;56,35115763;37,52148358;4,51000023;
14:57:41:624;-0,9351;-0,4283;1,7489;56,35115763;37,52148358;4,51000023;
14:57:41:626;-0,9351;-0,4283;1,7489;56,35115763;37,52148358;4,51000023;
14:57:41:628;-0,9351;-0,4283;1,7489;56,35115763;37,52148358;4,51000023;
14:57:41:681;-0,4466;-0,2787;-0,1855;56,35115763;37,52148358;4,51000023;
14:57:41:683;-0,4466;-0,2787;-0,1855;56,35119071;37,52150477;3,63000011;
14:57:41:691;-0,4466;-0,2787;-0,1855;56,35119071;37,52150477;3,63000011;
14:57:41:693;-0,4466;-0,2787;-0,1855;56,35119071;37,52150477;3,63000011;
14:57:41:695;-0,4466;-0,2787;-0,1855;56,35119071;37,52150477;3,63000011;
14:57:41:741;-0,4466;-0,2787;-0,1855;56,35119071;37,52150477;3,63000011;
14:57:41:743;0,4006;0,4676;-0,9689;56,35119071;37,52150477;3,63000011;
14:57:41:768;0,4006;0,4676;-0,9689;56,35119071;37,52150477;3,63000011;
14:57:41:770;0,4084;0,5261;-0,9969;56,35119071;37,52150477;3,63000011;
14:57:41:771;0,4084;0,5261;-0,9969;56,35119071;37,52150477;3,63000011;
14:57:41:773;0,4084;0,5261;-0,9969;56,35119071;37,52150477;3,63000011;
14:57:41:774;0,4084;0,5261;-0,9969;56,35119071;37,52150477;3,63000011;
14:57:41:775;0,4084;0,5261;-0,9969;56,35119071;37,52150477;3,63000011;
14:57:41:822;0,4084;0,5261;-0,9969;56,35119071;37,52150477;3,63000011;
14:57:41:825;0,6968;0,3478;0,4461;56,35119071;37,52150477;3,63000011;
14:57:41:849;0,6968;0,3478;0,4461;56,35119071;37,52150477;3,63000011;
14:57:41:852;0,6968;0,3478;0,4461;56,35119071;37,52150477;3,63000011;
14:57:41:854;0,6968;0,3478;0,4461;56,35119071;37,52150477;3,63000011;
14:57:41:856;0,6968;0,3478;0,4461;56,35119071;37,52150477;3,63000011;
14:57:41:885;0,6968;0,3478;0,4461;56,35119071;37,52150477;3,63000011;
14:57:41:887;-0,6636;-0,2231;0,2148;56,35119071;37,52150477;3,63000011;
14:57:41:909;-0,6636;-0,2231;0,2148;56,35119071;37,52150477;3,63000011;
14:57:41:912;-0,6636;-0,2231;0,2148;56,35119071;37,52150477;3,63000011;
14:57:41:943;-0,6636;-0,2231;0,2148;56,35119071;37,52150477;3,63000011;
14:57:41:946;-0,4387;0,1649;-0,3259;56,35119071;37,52150477;3,63000011;
14:57:41:987;-0,4387;0,1649;-0,3259;56,35119071;37,52150477;3,63000011;
14:57:41:989;-0,4387;0,1649;-0,3259;56,35119071;37,52150477;3,63000011;
14:57:41:991;-0,4387;0,1649;-0,3259;56,35119071;37,52150477;3,63000011;
14:57:41:993;-0,4387;0,1649;-0,3259;56,35119071;37,52150477;3,63000011;
14:57:41:995;-0,4387;0,1649;-0,3259;56,35119071;37,52150477;3,63000011;
14:57:42:045;-0,4387;0,1649;-0,3259;56,35119071;37,52150477;3,63000011;
14:57:42:047;-0,3799;0,0344;-0,1338;56,35119071;37,52150477;3,63000011;
14:57:42:065;-0,3799;0,0344;-0,1338;56,35119071;37,52150477;3,63000011;
14:57:42:069;-0,3302;0,0337;-0,1588;56,35119071;37,52150477;3,63000011;
14:57:42:074;-0,3302;0,0337;-0,1588;56,35119071;37,52150477;3,63000011;
14:57:42:076;-0,3302;0,0337;-0,1588;56,35119071;37,52150477;3,63000011;
14:57:42:078;-0,3302;0,0337;-0,1588;56,35119071;37,52150477;3,63000011;
14:57:42:079;-0,3302;0,0337;-0,1588;56,35119071;37,52150477;3,63000011;
14:57:42:116;-0,3302;0,0337;-0,1588;56,35119071;37,52150477;3,63000011;
14:57:42:118;-0,4110;0,2562;-0,2084;56,35119071;37,52150477;3,63000011;
14:57:42:144;-0,4110;0,2562;-0,2084;56,35119071;37,52150477;3,63000011;
14:57:42:146;-0,4110;0,2562;-0,2084;56,35119071;37,52150477;3,63000011;
14:57:42:148;-0,4110;0,2562;-0,2084;56,35119071;37,52150477;3,63000011;
14:57:42:150;-0,4110;0,2562;-0,2084;56,35119071;37,52150477;3,63000011;
14:57:42:207;-0,4110;0,2562;-0,2084;56,35119071;37,52150477;3,63000011;
14:57:42:209;-0,4474;0,0117;-0,1174;56,35119071;37,52150477;3,63000011;
14:57:42:228;-0,4474;0,0117;-0,1174;56,35119071;37,52150477;3,63000011;
14:57:42:231;-0,4474;0,0117;-0,1174;56,35119071;37,52150477;3,63000011;
14:57:42:233;-0,4474;0,0117;-0,1174;56,35119071;37,52150477;3,63000011;
14:57:42:237;-0,4474;0,0117;-0,1174;56,35119071;37,52150477;3,63000011;
14:57:42:276;-0,4474;0,0117;-0,1174;56,35119071;37,52150477;3,63000011;
14:57:42:279;0,1333;0,6879;-0,0597;56,35119071;37,52150477;3,63000011;
14:57:42:302;0,1333;0,6879;-0,0597;56,35119071;37,52150477;3,63000011;
14:57:42:305;0,1333;0,6879;-0,0597;56,35119071;37,52150477;3,63000011;
14:57:42:308;0,1333;0,6879;-0,0597;56,35119071;37,52150477;3,63000011;
14:57:42:310;0,1333;0,6879;-0,0597;56,35119071;37,52150477;3,63000011;
14:57:42:312;0,1333;0,6879;-0,0597;56,35119071;37,52150477;3,63000011;
14:57:42:314;0,0366;0,6237;0,0282;56,35119071;37,52150477;3,63000011;
14:57:42:356;0,0366;0,6237;0,0282;56,35119071;37,52150477;3,63000011;
14:57:42:359;0,6091;1,1772;-0,7573;56,35119071;37,52150477;3,63000011;
14:57:42:406;0,6091;1,1772;-0,7573;56,35119071;37,52150477;3,63000011;
14:57:42:409;0,6091;1,1772;-0,7573;56,35119071;37,52150477;3,63000011;
14:57:42:411;0,6091;1,1772;-0,7573;56,35119071;37,52150477;3,63000011;
14:57:42:413;0,6091;1,1772;-0,7573;56,35119071;37,52150477;3,63000011;
14:57:42:415;0,6091;1,1772;-0,7573;56,35119071;37,52150477;3,63000011;
14:57:42:467;-0,4596;0,9879;-0,5463;56,35119071;37,52150477;3,63000011;
14:57:42:471;-0,4596;0,9879;-0,5463;56,35119071;37,52150477;3,63000011;
14:57:42:484;-0,4596;0,9879;-0,5463;56,35119071;37,52150477;3,63000011;
14:57:42:486;-0,3757;1,0131;-0,6073;56,35119071;37,52150477;3,63000011;
14:57:42:489;-0,3757;1,0131;-0,6073;56,35119071;37,52150477;3,63000011;
14:57:42:490;-0,3757;1,0131;-0,6073;56,35119071;37,52150477;3,63000011;
14:57:42:492;-0,3757;1,0131;-0,6073;56,35119071;37,52150477;3,63000011;
14:57:42:494;-0,3757;1,0131;-0,6073;56,35119071;37,52150477;3,63000011;
14:57:42:536;-0,3757;1,0131;-0,6073;56,35119071;37,52150477;3,63000011;
14:57:42:540;-0,5069;0,5509;0,1171;56,35119071;37,52150477;3,63000011;
14:57:42:563;-0,5069;0,5509;0,1171;56,35119071;37,52150477;3,63000011;
14:57:42:566;-0,5069;0,5509;0,1171;56,35119071;37,52150477;3,63000011;
14:57:42:568;-0,5069;0,5509;0,1171;56,35119071;37,52150477;3,63000011;
14:57:42:597;-0,5069;0,5509;0,1171;56,35119071;37,52150477;3,63000011;
14:57:42:599;-0,0712;0,4679;0,3580;56,35119071;37,52150477;3,63000011;
14:57:42:627;-0,0712;0,4679;0,3580;56,35119071;37,52150477;3,63000011;
14:57:42:628;-0,0712;0,4679;0,3580;56,35119071;37,52150477;3,63000011;
14:57:42:631;-0,0712;0,4679;0,3580;56,35119071;37,52150477;3,63000011;
14:57:42:632;-0,0712;0,4679;0,3580;56,35119071;37,52150477;3,63000011;
14:57:42:665;-0,0712;0,4679;0,3580;56,35119071;37,52150477;3,63000011;
14:57:42:667;-0,2860;0,3436;-0,1651;56,35119071;37,52150477;3,63000011;
14:57:42:706;-0,2860;0,3436;-0,1651;56,35119071;37,52150477;3,63000011;
14:57:42:708;-0,2860;0,3436;-0,1651;56,35121324;37,52153105;3,50000000;
14:57:42:709;-0,2860;0,3436;-0,1651;56,35121324;37,52153105;3,50000000;
14:57:42:710;-0,2860;0,3436;-0,1651;56,35121324;37,52153105;3,50000000;
14:57:42:767;-0,2860;0,3436;-0,1651;56,35121324;37,52153105;3,50000000;
14:57:42:768;-0,2434;0,4625;-0,2134;56,35121324;37,52153105;3,50000000;
14:57:42:773;-0,2434;0,4625;-0,2134;56,35121324;37,52153105;3,50000000;
14:57:42:774;-0,2434;0,4625;-0,2134;56,35121324;37,52153105;3,50000000;
14:57:42:774;-0,2434;0,4625;-0,2134;56,35121324;37,52153105;3,50000000;
14:57:42:827;-0,2434;0,4625;-0,2134;56,35121324;37,52153105;3,50000000;
14:57:42:828;-0,0328;0,7259;-0,3647;56,35121324;37,52153105;3,50000000;
14:57:42:849;-0,0328;0,7259;-0,3647;56,35121324;37,52153105;3,50000000;
14:57:42:851;-0,0403;0,7192;-0,3567;56,35121324;37,52153105;3,50000000;
14:57:42:854;-0,0403;0,7192;-0,3567;56,35121324;37,52153105;3,50000000;
14:57:42:856;-0,0403;0,7192;-0,3567;56,35121324;37,52153105;3,50000000;
14:57:42:857;-0,0403;0,7192;-0,3567;56,35121324;37,52153105;3,50000000;
14:57:42:858;-0,0403;0,7192;-0,3567;56,35121324;37,52153105;3,50000000;
14:57:42:909;-0,0403;0,7192;-0,3567;56,35121324;37,52153105;3,50000000;
14:57:42:911;-0,0628;0,7472;-0,0892;56,35121324;37,52153105;3,50000000;
14:57:42:928;-0,0628;0,7472;-0,0892;56,35121324;37,52153105;3,50000000;
14:57:42:931;-0,0628;0,7472;-0,0892;56,35121324;37,52153105;3,50000000;
14:57:42:933;-0,0628;0,7472;-0,0892;56,35121324;37,52153105;3,50000000;
14:57:42:936;-0,0628;0,7472;-0,0892;56,35121324;37,52153105;3,50000000;
14:57:42:990;-0,1972;0,3198;-0,1757;56,35121324;37,52153105;3,50000000;
14:57:42:993;-0,1972;0,3198;-0,1757;56,35121324;37,52153105;3,50000000;
14:57:43:052;-0,1972;0,3198;-0,1757;56,35121324;37,52153105;3,50000000;
14:57:43:054;-0,1972;0,3198;-0,1757;56,35121324;37,52153105;3,50000000;
14:57:43:057;-0,1972;0,3198;-0,1757;56,35121324;37,52153105;3,50000000;
14:57:43:059;-0,1972;0,3198;-0,1757;56,35121324;37,52153105;3,50000000;
14:57:43:061;-0,1972;0,3198;-0,1757;56,35121324;37,52153105;3,50000000;
14:57:43:062;-0,1972;0,3198;-0,1757;56,35121324;37,52153105;3,50000000;
14:57:43:064;-0,1972;0,3198;-0,1757;56,35121324;37,52153105;3,50000000;
14:57:43:067;0,0743;0,7385;0,0626;56,35121324;37,52153105;3,50000000;
14:57:43:109;-0,0013;0,5291;-0,3969;56,35121324;37,52153105;3,50000000;
14:57:43:112;-0,0013;0,5291;-0,3969;56,35121324;37,52153105;3,50000000;
14:57:43:125;-0,0013;0,5291;-0,3969;56,35121324;37,52153105;3,50000000;
14:57:43:127;-0,0013;0,5291;-0,3969;56,35121324;37,52153105;3,50000000;
14:57:43:128;-0,0013;0,5291;-0,3969;56,35121324;37,52153105;3,50000000;
14:57:43:129;-0,0013;0,5291;-0,3969;56,35121324;37,52153105;3,50000000;
14:57:43:138;-0,0013;0,5291;-0,3969;56,35121324;37,52153105;3,50000000;
14:57:43:140;0,0241;0,5343;-0,4136;56,35121324;37,52153105;3,50000000;
14:57:43:205;-0,2555;0,1289;-0,0545;56,35121324;37,52153105;3,50000000;
14:57:43:208;-0,2555;0,1289;-0,0545;56,35121324;37,52153105;3,50000000;
14:57:43:211;-0,2555;0,1289;-0,0545;56,35121324;37,52153105;3,50000000;
14:57:43:213;-0,2555;0,1289;-0,0545;56,35121324;37,52153105;3,50000000;
14:57:43:215;-0,2555;0,1289;-0,0545;56,35121324;37,52153105;3,50000000;
14:57:43:218;-0,2555;0,1289;-0,0545;56,35121324;37,52153105;3,50000000;
14:57:43:260;-0,2555;0,1289;-0,0545;56,35121324;37,52153105;3,50000000;
14:57:43:263;-0,5067;0,1055;0,3715;56,35121324;37,52153105;3,50000000;
14:57:43:284;-0,5067;0,1055;0,3715;56,35121324;37,52153105;3,50000000;
14:57:43:287;-0,5067;0,1055;0,3715;56,35121324;37,52153105;3,50000000;
14:57:43:289;-0,5067;0,1055;0,3715;56,35121324;37,52153105;3,50000000;
14:57:43:292;-0,5067;0,1055;0,3715;56,35121324;37,52153105;3,50000000;
14:57:43:341;-0,5067;0,1055;0,3715;56,35121324;37,52153105;3,50000000;
14:57:43:343;-0,2554;-0,0376;0,5323;56,35121324;37,52153105;3,50000000;
14:57:43:365;-0,2554;-0,0376;0,5323;56,35121324;37,52153105;3,50000000;
14:57:43:367;-0,2554;-0,0376;0,5323;56,35121324;37,52153105;3,50000000;
14:57:43:370;-0,2554;-0,0376;0,5323;56,35121324;37,52153105;3,50000000;
14:57:43:372;-0,2554;-0,0376;0,5323;56,35121324;37,52153105;3,50000000;
14:57:43:421;-0,2554;-0,0376;0,5323;56,35121324;37,52153105;3,50000000;
14:57:43:424;-0,4030;-0,1887;0,1005;56,35121324;37,52153105;3,50000000;
14:57:43:452;-0,4030;-0,1887;0,1005;56,35121324;37,52153105;3,50000000;
14:57:43:456;-0,4030;-0,1887;0,1005;56,35121324;37,52153105;3,50000000;
14:57:43:458;-0,4030;-0,1887;0,1005;56,35121324;37,52153105;3,50000000;
14:57:43:460;-0,4030;-0,1887;0,1005;56,35121324;37,52153105;3,50000000;
14:57:43:462;-0,4030;-0,1887;0,1005;56,35121324;37,52153105;3,50000000;
14:57:43:464;-0,3818;-0,2202;0,1100;56,35121324;37,52153105;3,50000000;
14:57:43:512;-0,3818;-0,2202;0,1100;56,35121324;37,52153105;3,50000000;
14:57:43:515;-0,3020;-0,1258;0,6247;56,35121324;37,52153105;3,50000000;
14:57:43:530;-0,3020;-0,1258;0,6247;56,35121324;37,52153105;3,50000000;
14:57:43:532;-0,3020;-0,1258;0,6247;56,35121324;37,52153105;3,50000000;
14:57:43:534;-0,3020;-0,1258;0,6247;56,35121324;37,52153105;3,50000000;
14:57:43:537;-0,3020;-0,1258;0,6247;56,35121324;37,52153105;3,50000000;
14:57:43:582;-0,3020;-0,1258;0,6247;56,35121324;37,52153105;3,50000000;
14:57:43:585;-0,9183;-0,0444;0,5075;56,35121324;37,52153105;3,50000000;
14:57:43:607;-0,9183;-0,0444;0,5075;56,35121324;37,52153105;3,50000000;
14:57:43:610;-0,9183;-0,0444;0,5075;56,35121324;37,52153105;3,50000000;
14:57:43:611;-0,9183;-0,0444;0,5075;56,35121324;37,52153105;3,50000000;
14:57:43:613;-0,9183;-0,0444;0,5075;56,35121324;37,52153105;3,50000000;
14:57:43:652;-0,9183;-0,0444;0,5075;56,35121324;37,52153105;3,50000000;
14:57:43:656;-0,8819;0,0235;0,0517;56,35121324;37,52153105;3,50000000;
14:57:43:711;-0,8819;0,0235;0,0517;56,35121324;37,52153105;3,50000000;
14:57:43:713;-0,8819;0,0235;0,0517;56,35124719;37,52153184;3,82999992;
14:57:43:715;-0,8819;0,0235;0,0517;56,35124719;37,52153184;3,82999992;
14:57:43:716;-0,8819;0,0235;0,0517;56,35124719;37,52153184;3,82999992;
14:57:43:719;-0,8819;0,0235;0,0517;56,35124719;37,52153184;3,82999992;
14:57:43:721;-0,8819;0,0235;0,0517;56,35124719;37,52153184;3,82999992;
14:57:43:723;-0,3931;0,1672;-0,2032;56,35124719;37,52153184;3,82999992;
14:57:43:773;-0,3931;0,1672;-0,2032;56,35124719;37,52153184;3,82999992;
14:57:43:775;0,1539;0,3477;0,0620;56,35124719;37,52153184;3,82999992;
14:57:43:788;0,1539;0,3477;0,0620;56,35124719;37,52153184;3,82999992;
14:57:43:790;0,1539;0,3477;0,0620;56,35124719;37,52153184;3,82999992;
14:57:43:791;0,1539;0,3477;0,0620;56,35124719;37,52153184;3,82999992;
14:57:43:792;0,1539;0,3477;0,0620;56,35124719;37,52153184;3,82999992;
14:57:43:843;0,1539;0,3477;0,0620;56,35124719;37,52153184;3,82999992;
14:57:43:846;0,0377;0,1089;-0,0231;56,35124719;37,52153184;3,82999992;
14:57:43:852;0,0377;0,1089;-0,0231;56,35124719;37,52153184;3,82999992;
14:57:43:855;0,0377;0,1089;-0,0231;56,35124719;37,52153184;3,82999992;
14:57:43:857;0,0377;0,1089;-0,0231;56,35124719;37,52153184;3,82999992;
14:57:43:904;0,0377;0,1089;-0,0231;56,35124719;37,52153184;3,82999992;
14:57:43:907;-0,3490;0,0746;0,3435;56,35124719;37,52153184;3,82999992;
14:57:43:931;-0,3490;0,0746;0,3435;56,35124719;37,52153184;3,82999992;
14:57:43:934;-0,2960;0,1208;0,2836;56,35124719;37,52153184;3,82999992;
14:57:43:938;-0,2960;0,1208;0,2836;56,35124719;37,52153184;3,82999992;
14:57:43:940;-0,2960;0,1208;0,2836;56,35124719;37,52153184;3,82999992;
14:57:43:942;-0,2960;0,1208;0,2836;56,35124719;37,52153184;3,82999992;
14:57:43:944;-0,2960;0,1208;0,2836;56,35124719;37,52153184;3,82999992;
14:57:44:009;-0,2960;0,1208;0,2836;56,35124719;37,52153184;3,82999992;
14:57:44:012;-0,6795;-0,0036;0,1382;56,35124719;37,52153184;3,82999992;
14:57:44:014;-0,6795;-0,0036;0,1382;56,35124719;37,52153184;3,82999992;
14:57:44:016;-0,6795;-0,0036;0,1382;56,35124719;37,52153184;3,82999992;
14:57:44:017;-0,6795;-0,0036;0,1382;56,35124719;37,52153184;3,82999992;
14:57:44:019;-0,6795;-0,0036;0,1382;56,35124719;37,52153184;3,82999992;
14:57:44:065;-0,6795;-0,0036;0,1382;56,35124719;37,52153184;3,82999992;
14:57:44:068;-0,3186;0,0753;0,6127;56,35124719;37,52153184;3,82999992;
14:57:44:075;-0,3186;0,0753;0,6127;56,35124719;37,52153184;3,82999992;
14:57:44:077;-0,3186;0,0753;0,6127;56,35124719;37,52153184;3,82999992;
14:57:44:079;-0,3186;0,0753;0,6127;56,35124719;37,52153184;3,82999992;
14:57:44:126;-0,3186;0,0753;0,6127;56,35124719;37,52153184;3,82999992;
14:57:44:129;-0,3000;-0,0366;0,6159;56,35124719;37,52153184;3,82999992;
14:57:44:147;-0,3000;-0,0366;0,6159;56,35124719;37,52153184;3,82999992;
14:57:44:149;-0,3000;-0,0366;0,6159;56,35124719;37,52153184;3,82999992;
14:57:44:151;-0,3000;-0,0366;0,6159;56,35124719;37,52153184;3,82999992;
14:57:44:153;-0,3000;-0,0366;0,6159;56,35124719;37,52153184;3,82999992;
14:57:44:217;-0,3000;-0,0366;0,6159;56,35124719;37,52153184;3,82999992;
14:57:44:219;-0,4102;-0,4443;0,4813;56,35124719;37,52153184;3,82999992;
14:57:44:222;-0,4102;-0,4443;0,4813;56,35124719;37,52153184;3,82999992;
14:57:44:224;-0,4102;-0,4443;0,4813;56,35124719;37,52153184;3,82999992;
14:57:44:226;-0,4102;-0,4443;0,4813;56,35124719;37,52153184;3,82999992;
14:57:44:238;-0,1282;-0,5423;0,4020;56,35124719;37,52153184;3,82999992;
14:57:44:242;-0,1282;-0,5423;0,4020;56,35124719;37,52153184;3,82999992;
14:57:44:285;-0,1282;-0,5423;0,4020;56,35124719;37,52153184;3,82999992;
14:57:44:295;-0,1282;-0,5423;0,4020;56,35124719;37,52153184;3,82999992;
14:57:44:297;1,0480;-0,7344;2,4779;56,35124719;37,52153184;3,82999992;
14:57:44:358;1,0480;-0,7344;2,4779;56,35124719;37,52153184;3,82999992;
14:57:44:360;1,0480;-0,7344;2,4779;56,35124719;37,52153184;3,82999992;
14:57:44:362;1,0480;-0,7344;2,4779;56,35124719;37,52153184;3,82999992;
14:57:44:364;1,0480;-0,7344;2,4779;56,35124719;37,52153184;3,82999992;
14:57:44:366;1,0480;-0,7344;2,4779;56,35124719;37,52153184;3,82999992;
14:57:44:368;1,0480;-0,7344;2,4779;56,35124719;37,52153184;3,82999992;
14:57:44:370;1,0480;-0,7344;2,4779;56,35124719;37,52153184;3,82999992;
14:57:44:372;0,9972;-0,9259;2,0134;56,35124719;37,52153184;3,82999992;
14:57:44:416;0,9972;-0,9259;2,0134;56,35124719;37,52153184;3,82999992;
14:57:44:418;-0,0808;-0,9508;-0,1343;56,35124719;37,52153184;3,82999992;
14:57:44:436;-0,0808;-0,9508;-0,1343;56,35124719;37,52153184;3,82999992;
14:57:44:438;-0,0808;-0,9508;-0,1343;56,35124719;37,52153184;3,82999992;
14:57:44:441;-0,0808;-0,9508;-0,1343;56,35124719;37,52153184;3,82999992;
14:57:44:444;-0,0808;-0,9508;-0,1343;56,35124719;37,52153184;3,82999992;
14:57:44:497;-0,0808;-0,9508;-0,1343;56,35124719;37,52153184;3,82999992;
14:57:44:499;-0,2500;0,7066;-1,8027;56,35124719;37,52153184;3,82999992;
14:57:44:503;-0,2500;0,7066;-1,8027;56,35124719;37,52153184;3,82999992;
14:57:44:505;-0,2500;0,7066;-1,8027;56,35124719;37,52153184;3,82999992;
14:57:44:507;-0,2500;0,7066;-1,8027;56,35124719;37,52153184;3,82999992;
14:57:44:558;-0,2500;0,7066;-1,8027;56,35124719;37,52153184;3,82999992;
14:57:44:561;-0,4097;1,0031;-0,5895;56,35124719;37,52153184;3,82999992;
14:57:44:578;-0,4097;1,0031;-0,5895;56,35124719;37,52153184;3,82999992;
14:57:44:581;-0,4097;1,0031;-0,5895;56,35124719;37,52153184;3,82999992;
14:57:44:582;-0,4097;1,0031;-0,5895;56,35124719;37,52153184;3,82999992;
14:57:44:585;-0,4097;1,0031;-0,5895;56,35124719;37,52153184;3,82999992;
14:57:44:639;-0,4097;1,0031;-0,5895;56,35124719;37,52153184;3,82999992;
14:57:44:645;-1,0395;0,3041;-1,1490;56,35124719;37,52153184;3,82999992;
14:57:44:658;-1,0395;0,3041;-1,1490;56,35124719;37,52153184;3,82999992;
14:57:44:660;-1,0395;0,3041;-1,1490;56,35124719;37,52153184;3,82999992;
14:57:44:662;-1,0395;0,3041;-1,1490;56,35124719;37,52153184;3,82999992;
14:57:44:664;-1,0395;0,3041;-1,1490;56,35124719;37,52153184;3,82999992;
14:57:44:667;-1,0395;0,3041;-1,1490;56,35124719;37,52153184;3,82999992;
14:57:44:668;-1,2039;0,3187;-1,1179;56,35124719;37,52153184;3,82999992;
14:57:44:717;-1,2039;0,3187;-1,1179;56,35124719;37,52153184;3,82999992;
14:57:44:727;-1,2039;0,3187;-1,1179;56,35128483;37,52150891;4,19000006;
14:57:44:729;-0,6937;-0,1346;-0,2166;56,35128483;37,52150891;4,19000006;
14:57:44:795;-0,6937;-0,1346;-0,2166;56,35128483;37,52150891;4,19000006;
14:57:44:798;-0,6937;-0,1346;-0,2166;56,35128483;37,52150891;4,19000006;
14:57:44:800;-0,6937;-0,1346;-0,2166;56,35128483;37,52150891;4,19000006;
14:57:44:802;-0,6937;-0,1346;-0,2166;56,35128483;37,52150891;4,19000006;
14:57:44:804;-0,6937;-0,1346;-0,2166;56,35128483;37,52150891;4,19000006;
14:57:44:807;-0,6937;-0,1346;-0,2166;56,35128483;37,52150891;4,19000006;
14:57:44:809;-0,6937;-0,1346;-0,2166;56,35128483;37,52150891;4,19000006;
14:57:44:811;-0,3904;0,4118;-0,9240;56,35128483;37,52150891;4,19000006;
14:57:44:848;-0,3904;0,4118;-0,9240;56,35128483;37,52150891;4,19000006;
14:57:44:851;-0,2083;0,3761;0,7977;56,35128483;37,52150891;4,19000006;
14:57:44:874;-0,2083;0,3761;0,7977;56,35128483;37,52150891;4,19000006;
14:57:44:877;-0,2083;0,3761;0,7977;56,35128483;37,52150891;4,19000006;
14:57:44:879;-0,2083;0,3761;0,7977;56,35128483;37,52150891;4,19000006;
14:57:44:881;-0,2083;0,3761;0,7977;56,35128483;37,52150891;4,19000006;
14:57:44:929;-0,2083;0,3761;0,7977;56,35128483;37,52150891;4,19000006;
14:57:44:931;-0,0794;-0,1981;1,6053;56,35128483;37,52150891;4,19000006;
14:57:44:937;-0,0794;-0,1981;1,6053;56,35128483;37,52150891;4,19000006;
14:57:44:939;-0,0794;-0,1981;1,6053;56,35128483;37,52150891;4,19000006;
14:57:44:941;-0,0794;-0,1981;1,6053;56,35128483;37,52150891;4,19000006;
14:57:44:989;-0,0794;-0,1981;1,6053;56,35128483;37,52150891;4,19000006;
14:57:44:992;0,0911;-0,0869;0,3648;56,35128483;37,52150891;4,19000006;
14:57:45:010;-0,0636;-0,0091;0,3590;56,35128483;37,52150891;4,19000006;
14:57:45:014;-0,0636;-0,0091;0,3590;56,35128483;37,52150891;4,19000006;
14:57:45:016;-0,0636;-0,0091;0,3590;56,35128483;37,52150891;4,19000006;
14:57:45:018;-0,0636;-0,0091;0,3590;56,35128483;37,52150891;4,19000006;
14:57:45:021;-0,0636;-0,0091;0,3590;56,35128483;37,52150891;4,19000006;
14:57:45:024;-0,0636;-0,0091;0,3590;56,35128483;37,52150891;4,19000006;
14:57:45:070;-0,0636;-0,0091;0,3590;56,35128483;37,52150891;4,19000006;
14:57:45:073;0,3096;0,3454;0,2468;56,35128483;37,52150891;4,19000006;
14:57:45:091;0,3096;0,3454;0,2468;56,35128483;37,52150891;4,19000006;
14:57:45:093;0,3096;0,3454;0,2468;56,35128483;37,52150891;4,19000006;
14:57:45:095;0,3096;0,3454;0,2468;56,35128483;37,52150891;4,19000006;
14:57:45:139;0,3096;0,3454;0,2468;56,35128483;37,52150891;4,19000006;
14:57:45:141;-0,3675;-0,1930;0,4033;56,35128483;37,52150891;4,19000006;
14:57:45:149;-0,3675;-0,1930;0,4033;56,35128483;37,52150891;4,19000006;
14:57:45:151;-0,3675;-0,1930;0,4033;56,35128483;37,52150891;4,19000006;
14:57:45:154;-0,3675;-0,1930;0,4033;56,35128483;37,52150891;4,19000006;
14:57:45:227;-0,3675;-0,1930;0,4033;56,35128483;37,52150891;4,19000006;
14:57:45:230;-0,3675;-0,1930;0,4033;56,35128483;37,52150891;4,19000006;
14:57:45:231;-0,3675;-0,1930;0,4033;56,35128483;37,52150891;4,19000006;
14:57:45:233;-0,3675;-0,1930;0,4033;56,35128483;37,52150891;4,19000006;
14:57:45:235;-0,3675;-0,1930;0,4033;56,35128483;37,52150891;4,19000006;
14:57:45:237;-0,7991;0,3794;0,5669;56,35128483;37,52150891;4,19000006;
14:57:45:272;-0,7991;0,3794;0,5669;56,35128483;37,52150891;4,19000006;
14:57:45:275;-0,9071;0,2085;0,2137;56,35128483;37,52150891;4,19000006;
14:57:45:306;-0,9071;0,2085;0,2137;56,35128483;37,52150891;4,19000006;
14:57:45:309;-0,9071;0,2085;0,2137;56,35128483;37,52150891;4,19000006;
14:57:45:311;-0,9071;0,2085;0,2137;56,35128483;37,52150891;4,19000006;
14:57:45:312;-0,9071;0,2085;0,2137;56,35128483;37,52150891;4,19000006;
14:57:45:361;-0,9071;0,2085;0,2137;56,35128483;37,52150891;4,19000006;
14:57:45:364;-1,0810;0,1380;-0,2033;56,35128483;37,52150891;4,19000006;
14:57:45:369;-1,0810;0,1380;-0,2033;56,35128483;37,52150891;4,19000006;
14:57:45:371;-1,0810;0,1380;-0,2033;56,35128483;37,52150891;4,19000006;
14:57:45:373;-1,0810;0,1380;-0,2033;56,35128483;37,52150891;4,19000006;
14:57:45:421;-1,0810;0,1380;-0,2033;56,35128483;37,52150891;4,19000006;
14:57:45:425;-0,6007;-0,2907;0,7762;56,35128483;37,52150891;4,19000006;
14:57:45:446;-0,6007;-0,2907;0,7762;56,35128483;37,52150891;4,19000006;
14:57:45:449;-0,7321;-0,2394;0,7915;56,35128483;37,52150891;4,19000006;
14:57:45:453;-0,7321;-0,2394;0,7915;56,35128483;37,52150891;4,19000006;
14:57:45:455;-0,7321;-0,2394;0,7915;56,35128483;37,52150891;4,19000006;
14:57:45:457;-0,7321;-0,2394;0,7915;56,35128483;37,52150891;4,19000006;
14:57:45:459;-0,7321;-0,2394;0,7915;56,35128483;37,52150891;4,19000006;
14:57:45:502;-0,7321;-0,2394;0,7915;56,35128483;37,52150891;4,19000006;
14:57:45:505;-0,0451;-0,3148;0,8159;56,35128483;37,52150891;4,19000006;
14:57:45:521;-0,0451;-0,3148;0,8159;56,35128483;37,52150891;4,19000006;
14:57:45:523;-0,0451;-0,3148;0,8159;56,35128483;37,52150891;4,19000006;
14:57:45:525;-0,0451;-0,3148;0,8159;56,35128483;37,52150891;4,19000006;
14:57:45:528;-0,0451;-0,3148;0,8159;56,35128483;37,52150891;4,19000006;
14:57:45:582;-0,0451;-0,3148;0,8159;56,35128483;37,52150891;4,19000006;
14:57:45:594;0,4463;-0,0998;0,3558;56,35128483;37,52150891;4,19000006;
14:57:45:598;0,4463;-0,0998;0,3558;56,35128483;37,52150891;4,19000006;
14:57:45:654;0,4463;-0,0998;0,3558;56,35128483;37,52150891;4,19000006;
14:57:45:659;-0,2877;-0,2933;1,3087;56,35128483;37,52150891;4,19000006;
14:57:45:665;-0,2877;-0,2933;1,3087;56,35128483;37,52150891;4,19000006;
14:57:45:667;-0,2877;-0,2933;1,3087;56,35128483;37,52150891;4,19000006;
14:57:45:669;-0,2877;-0,2933;1,3087;56,35128483;37,52150891;4,19000006;
14:57:45:671;-0,2877;-0,2933;1,3087;56,35128483;37,52150891;4,19000006;
14:57:45:673;-0,2877;-0,2933;1,3087;56,35128483;37,52150891;4,19000006;
14:57:45:677;-0,2877;-0,2933;1,3087;56,35128483;37,52150891;4,19000006;
14:57:45:696;-0,2877;-0,2933;1,3087;56,35128483;37,52150891;4,19000006;
14:57:45:699;-0,8683;-0,0574;0,4475;56,35130640;37,52147065;3,83999991;
14:57:45:731;-0,8683;-0,0574;0,4475;56,35130640;37,52147065;3,83999991;
14:57:45:732;-0,8708;-0,1159;0,4922;56,35130640;37,52147065;3,83999991;
14:57:45:735;-0,8708;-0,1159;0,4922;56,35130640;37,52147065;3,83999991;
14:57:45:736;-0,8708;-0,1159;0,4922;56,35130640;37,52147065;3,83999991;
14:57:45:738;-0,8708;-0,1159;0,4922;56,35130640;37,52147065;3,83999991;
14:57:45:740;-0,8708;-0,1159;0,4922;56,35130640;37,52147065;3,83999991;
14:57:45:794;-0,8708;-0,1159;0,4922;56,35130640;37,52147065;3,83999991;
14:57:45:796;-0,6270;-0,1684;-0,0869;56,35130640;37,52147065;3,83999991;
14:57:45:798;-0,6270;-0,1684;-0,0869;56,35130640;37,52147065;3,83999991;
14:57:45:799;-0,6270;-0,1684;-0,0869;56,35130640;37,52147065;3,83999991;
14:57:45:801;-0,6270;-0,1684;-0,0869;56,35130640;37,52147065;3,83999991;
14:57:45:855;-0,6270;-0,1684;-0,0869;56,35130640;37,52147065;3,83999991;
14:57:45:857;-0,7453;-0,1628;0,2397;56,35130640;37,52147065;3,83999991;
14:57:45:875;-0,7453;-0,1628;0,2397;56,35130640;37,52147065;3,83999991;
14:57:45:878;-0,7453;-0,1628;0,2397;56,35130640;37,52147065;3,83999991;
14:57:45:880;-0,7453;-0,1628;0,2397;56,35130640;37,52147065;3,83999991;
14:57:45:882;-0,7453;-0,1628;0,2397;56,35130640;37,52147065;3,83999991;
14:57:45:935;-0,7453;-0,1628;0,2397;56,35130640;37,52147065;3,83999991;
14:57:45:938;-1,0435;-0,0677;0,1431;56,35130640;37,52147065;3,83999991;
14:57:45:953;-1,0435;-0,0677;0,1431;56,35130640;37,52147065;3,83999991;
14:57:45:955;-1,0435;-0,0677;0,1431;56,35130640;37,52147065;3,83999991;
14:57:45:957;-1,0435;-0,0677;0,1431;56,35130640;37,52147065;3,83999991;
14:57:46:005;-1,0435;-0,0677;0,1431;56,35130640;37,52147065;3,83999991;
14:57:46:007;-0,5778;-0,7458;0,4561;56,35130640;37,52147065;3,83999991;
14:57:46:013;-0,5778;-0,7458;0,4561;56,35130640;37,52147065;3,83999991;
14:57:46:015;-0,5778;-0,7458;0,4561;56,35130640;37,52147065;3,83999991;
14:57:46:017;-0,5778;-0,7458;0,4561;56,35130640;37,52147065;3,83999991;
14:57:46:058;-0,5778;-0,7458;0,4561;56,35130640;37,52147065;3,83999991;
14:57:46:060;0,4443;-0,1634;0,3578;56,35130640;37,52147065;3,83999991;
14:57:46:091;0,4443;-0,1634;0,3578;56,35130640;37,52147065;3,83999991;
14:57:46:095;0,4443;-0,1634;0,3578;56,35130640;37,52147065;3,83999991;
14:57:46:097;0,4443;-0,1634;0,3578;56,35130640;37,52147065;3,83999991;
14:57:46:099;0,4443;-0,1634;0,3578;56,35130640;37,52147065;3,83999991;
14:57:46:146;0,4443;-0,1634;0,3578;56,35130640;37,52147065;3,83999991;
14:57:46:149;-0,0956;0,0148;0,6512;56,35130640;37,52147065;3,83999991;
14:57:46:169;-0,0956;0,0148;0,6512;56,35130640;37,52147065;3,83999991;
14:57:46:173;-0,0599;-0,0038;0,6383;56,35130640;37,52147065;3,83999991;
14:57:46:176;-0,0599;-0,0038;0,6383;56,35130640;37,52147065;3,83999991;
14:57:46:178;-0,0599;-0,0038;0,6383;56,35130640;37,52147065;3,83999991;
14:57:46:180;-0,0599;-0,0038;0,6383;56,35130640;37,52147065;3,83999991;
14:57:46:181;-0,0599;-0,0038;0,6383;56,35130640;37,52147065;3,83999991;
14:57:46:229;-0,0599;-0,0038;0,6383;56,35130640;37,52147065;3,83999991;
14:57:46:232;-0,0599;-0,0038;0,6383;56,35130640;37,52147065;3,83999991;
14:57:46:267;-0,0599;-0,0038;0,6383;56,35130640;37,52147065;3,83999991;
14:57:46:269;0,3055;-0,2712;0,1268;56,35130640;37,52147065;3,83999991;
14:57:46:308;0,3146;0,3850;1,0361;56,35130640;37,52147065;3,83999991;
14:57:46:312;0,3146;0,3850;1,0361;56,35130640;37,52147065;3,83999991;
14:57:46:314;0,3146;0,3850;1,0361;56,35130640;37,52147065;3,83999991;
14:57:46:315;0,3146;0,3850;1,0361;56,35130640;37,52147065;3,83999991;
14:57:46:317;0,3146;0,3850;1,0361;56,35130640;37,52147065;3,83999991;
14:57:46:318;0,3146;0,3850;1,0361;56,35130640;37,52147065;3,83999991;
14:57:46:320;0,3146;0,3850;1,0361;56,35130640;37,52147065;3,83999991;
14:57:46:377;0,3146;0,3850;1,0361;56,35130640;37,52147065;3,83999991;
14:57:46:380;0,3146;0,3850;1,0361;56,35130640;37,52147065;3,83999991;
14:57:46:381;0,3146;0,3850;1,0361;56,35130640;37,52147065;3,83999991;
14:57:46:384;0,3146;0,3850;1,0361;56,35130640;37,52147065;3,83999991;
14:57:46:387;0,3146;0,3850;1,0361;56,35130640;37,52147065;3,83999991;
14:57:46:390;-1,0401;-0,5477;0,4063;56,35130640;37,52147065;3,83999991;
14:57:46:438;-0,6863;-0,4024;0,2466;56,35130640;37,52147065;3,83999991;
14:57:46:441;-0,6863;-0,4024;0,2466;56,35130640;37,52147065;3,83999991;
14:57:46:444;-0,6863;-0,4024;0,2466;56,35130640;37,52147065;3,83999991;
14:57:46:446;-0,6863;-0,4024;0,2466;56,35130640;37,52147065;3,83999991;
14:57:46:448;-0,6863;-0,4024;0,2466;56,35130640;37,52147065;3,83999991;
14:57:46:497;-0,6863;-0,4024;0,2466;56,35130640;37,52147065;3,83999991;
14:57:46:499;0,0458;-0,1842;0,3229;56,35130640;37,52147065;3,83999991;
14:57:46:523;0,0458;-0,1842;0,3229;56,35130640;37,52147065;3,83999991;
14:57:46:526;0,0612;-0,1932;0,3189;56,35130640;37,52147065;3,83999991;
14:57:46:528;0,0612;-0,1932;0,3189;56,35130640;37,52147065;3,83999991;
14:57:46:530;0,0612;-0,1932;0,3189;56,35130640;37,52147065;3,83999991;
14:57:46:532;0,0612;-0,1932;0,3189;56,35130640;37,52147065;3,83999991;
14:57:46:535;0,0612;-0,1932;0,3189;56,35130640;37,52147065;3,83999991;
14:57:46:576;0,0612;-0,1932;0,3189;56,35130640;37,52147065;3,83999991;
14:57:46:579;-0,3513;-0,3647;-0,2058;56,35130640;37,52147065;3,83999991;
14:57:46:603;-0,3513;-0,3647;-0,2058;56,35130640;37,52147065;3,83999991;
14:57:46:606;-0,3513;-0,3647;-0,2058;56,35130640;37,52147065;3,83999991;
14:57:46:608;-0,3513;-0,3647;-0,2058;56,35130640;37,52147065;3,83999991;
14:57:46:610;-0,3513;-0,3647;-0,2058;56,35130640;37,52147065;3,83999991;
14:57:46:659;-0,3513;-0,3647;-0,2058;56,35130640;37,52147065;3,83999991;
14:57:46:662;-0,3265;-0,8106;0,7440;56,35130640;37,52147065;3,83999991;
14:57:46:665;-0,3265;-0,8106;0,7440;56,35130640;37,52147065;3,83999991;
14:57:46:667;-0,3265;-0,8106;0,7440;56,35130640;37,52147065;3,83999991;
14:57:46:669;-0,3265;-0,8106;0,7440;56,35130640;37,52147065;3,83999991;
14:57:46:716;-0,3265;-0,8106;0,7440;56,35130640;37,52147065;3,83999991;
14:57:46:718;-0,0488;-0,6802;0,1256;56,35132338;37,52142764;3,42000008;
14:57:46:737;-0,0488;-0,6802;0,1256;56,35132338;37,52142764;3,42000008;
14:57:46:739;-0,0488;-0,6802;0,1256;56,35132338;37,52142764;3,42000008;
14:57:46:740;-0,0488;-0,6802;0,1256;56,35132338;37,52142764;3,42000008;
14:57:46:742;-0,0488;-0,6802;0,1256;56,35132338;37,52142764;3,42000008;
14:57:46:798;-0,0488;-0,6802;0,1256;56,35132338;37,52142764;3,42000008;
14:57:46:800;0,1092;-0,2898;0,9033;56,35132338;37,52142764;3,42000008;
14:57:46:817;0,1092;-0,2898;0,9033;56,35132338;37,52142764;3,42000008;
14:57:46:822;0,1092;-0,2898;0,9033;56,35132338;37,52142764;3,42000008;
14:57:46:824;0,1092;-0,2898;0,9033;56,35132338;37,52142764;3,42000008;
14:57:46:845;0,1092;-0,2898;0,9033;56,35132338;37,52142764;3,42000008;
14:57:46:848;-0,7093;-0,8676;0,6477;56,35132338;37,52142764;3,42000008;
14:57:46:878;-0,7093;-0,8676;0,6477;56,35132338;37,52142764;3,42000008;
14:57:46:882;-0,7093;-0,8676;0,6477;56,35132338;37,52142764;3,42000008;
14:57:46:900;-0,7093;-0,8676;0,6477;56,35132338;37,52142764;3,42000008;
14:57:46:904;-0,1567;-0,7586;0,5965;56,35132338;37,52142764;3,42000008;
14:57:46:955;-0,1567;-0,7586;0,5965;56,35132338;37,52142764;3,42000008;
14:57:46:957;-0,2286;-0,7228;0,6060;56,35132338;37,52142764;3,42000008;
14:57:46:959;-0,2286;-0,7228;0,6060;56,35132338;37,52142764;3,42000008;
14:57:46:960;-0,2286;-0,7228;0,6060;56,35132338;37,52142764;3,42000008;
14:57:46:961;-0,2286;-0,7228;0,6060;56,35132338;37,52142764;3,42000008;
14:57:46:963;-0,2286;-0,7228;0,6060;56,35132338;37,52142764;3,42000008;
14:57:46:965;-0,2286;-0,7228;0,6060;56,35132338;37,52142764;3,42000008;
14:57:47:010;-0,2286;-0,7228;0,6060;56,35132338;37,52142764;3,42000008;
14:57:47:012;0,1419;-0,6798;0,5401;56,35132338;37,52142764;3,42000008;
14:57:47:035;0,1419;-0,6798;0,5401;56,35132338;37,52142764;3,42000008;
14:57:47:039;0,1419;-0,6798;0,5401;56,35132338;37,52142764;3,42000008;
14:57:47:042;0,1419;-0,6798;0,5401;56,35132338;37,52142764;3,42000008;
14:57:47:045;0,1419;-0,6798;0,5401;56,35132338;37,52142764;3,42000008;
14:57:47:092;0,1419;-0,6798;0,5401;56,35132338;37,52142764;3,42000008;
14:57:47:096;-0,2978;-1,1578;0,9341;56,35132338;37,52142764;3,42000008;
14:57:47:099;-0,2978;-1,1578;0,9341;56,35132338;37,52142764;3,42000008;
14:57:47:102;-0,2978;-1,1578;0,9341;56,35132338;37,52142764;3,42000008;
14:57:47:105;-0,2978;-1,1578;0,9341;56,35132338;37,52142764;3,42000008;
14:57:47:150;-0,2978;-1,1578;0,9341;56,35132338;37,52142764;3,42000008;
14:57:47:154;-0,0947;-1,2544;0,6698;56,35132338;37,52142764;3,42000008;
14:57:47:170;-0,0947;-1,2544;0,6698;56,35132338;37,52142764;3,42000008;
14:57:47:173;-0,0947;-1,2544;0,6698;56,35132338;37,52142764;3,42000008;
14:57:47:175;-0,0947;-1,2544;0,6698;56,35132338;37,52142764;3,42000008;
14:57:47:176;-0,0947;-1,2544;0,6698;56,35132338;37,52142764;3,42000008;
14:57:47:228;-0,0947;-1,2544;0,6698;56,35132338;37,52142764;3,42000008;
14:57:47:231;-0,0641;-1,1212;0,6060;56,35132338;37,52142764;3,42000008;
14:57:47:249;-0,0641;-1,1212;0,6060;56,35132338;37,52142764;3,42000008;
14:57:47:252;-0,0147;-1,0687;0,5493;56,35132338;37,52142764;3,42000008;
14:57:47:255;-0,0147;-1,0687;0,5493;56,35132338;37,52142764;3,42000008;
14:57:47:258;-0,0147;-1,0687;0,5493;56,35132338;37,52142764;3,42000008;
14:57:47:260;-0,0147;-1,0687;0,5493;56,35132338;37,52142764;3,42000008;
14:57:47:262;-0,0147;-1,0687;0,5493;56,35132338;37,52142764;3,42000008;
14:57:47:305;-0,0147;-1,0687;0,5493;56,35132338;37,52142764;3,42000008;
14:57:47:309;-0,2393;-1,1081;1,0726;56,35132338;37,52142764;3,42000008;
14:57:47:312;-0,2393;-1,1081;1,0726;56,35132338;37,52142764;3,42000008;
14:57:47:316;-0,2393;-1,1081;1,0726;56,35132338;37,52142764;3,42000008;
14:57:47:319;-0,2393;-1,1081;1,0726;56,35132338;37,52142764;3,42000008;
14:57:47:387;-0,2393;-1,1081;1,0726;56,35132338;37,52142764;3,42000008;
14:57:47:390;-0,1957;-1,2359;0,9540;56,35132338;37,52142764;3,42000008;
14:57:47:393;-0,1957;-1,2359;0,9540;56,35132338;37,52142764;3,42000008;
14:57:47:395;-0,1957;-1,2359;0,9540;56,35132338;37,52142764;3,42000008;
14:57:47:397;-0,1957;-1,2359;0,9540;56,35132338;37,52142764;3,42000008;
14:57:47:399;-0,1957;-1,2359;0,9540;56,35132338;37,52142764;3,42000008;
14:57:47:442;-0,1957;-1,2359;0,9540;56,35132338;37,52142764;3,42000008;
14:57:47:444;0,2816;-1,0168;1,7491;56,35132338;37,52142764;3,42000008;
14:57:47:465;0,2816;-1,0168;1,7491;56,35132338;37,52142764;3,42000008;
14:57:47:467;0,2816;-1,0168;1,7491;56,35132338;37,52142764;3,42000008;
14:57:47:469;0,2816;-1,0168;1,7491;56,35132338;37,52142764;3,42000008;
14:57:47:472;0,2816;-1,0168;1,7491;56,35132338;37,52142764;3,42000008;
14:57:47:523;0,2816;-1,0168;1,7491;56,35132338;37,52142764;3,42000008;
14:57:47:527;-0,2158;-1,3561;1,1701;56,35132338;37,52142764;3,42000008;
14:57:47:530;-0,2158;-1,3561;1,1701;56,35132338;37,52142764;3,42000008;
14:57:47:532;-0,2158;-1,3561;1,1701;56,35132338;37,52142764;3,42000008;
14:57:47:535;-0,2158;-1,3561;1,1701;56,35132338;37,52142764;3,42000008;
14:57:47:583;-0,2158;-1,3561;1,1701;56,35132338;37,52142764;3,42000008;
14:57:47:587;-0,2745;-1,3966;0,8836;56,35132338;37,52142764;3,42000008;
14:57:47:604;-0,2745;-1,3966;0,8836;56,35132338;37,52142764;3,42000008;
14:57:47:609;-0,2650;-1,3652;0,8614;56,35132338;37,52142764;3,42000008;
14:57:47:612;-0,2650;-1,3652;0,8614;56,35132338;37,52142764;3,42000008;
14:57:47:615;-0,2650;-1,3652;0,8614;56,35132338;37,52142764;3,42000008;
14:57:47:617;-0,2650;-1,3652;0,8614;56,35132338;37,52142764;3,42000008;
14:57:47:619;-0,2650;-1,3652;0,8614;56,35132338;37,52142764;3,42000008;
14:57:47:674;-0,2650;-1,3652;0,8614;56,35132338;37,52142764;3,42000008;
14:57:47:676;-0,1823;-1,5443;1,2014;56,35133026;37,52137471;3,27999997;
14:57:47:678;-0,1823;-1,5443;1,2014;56,35133026;37,52137471;3,27999997;
14:57:47:679;-0,1823;-1,5443;1,2014;56,35133026;37,52137471;3,27999997;
14:57:47:681;-0,1823;-1,5443;1,2014;56,35133026;37,52137471;3,27999997;
14:57:47:734;-0,1823;-1,5443;1,2014;56,35133026;37,52137471;3,27999997;
14:57:47:736;-0,2211;-1,6205;1,0639;56,35133026;37,52137471;3,27999997;
14:57:47:742;-0,2211;-1,6205;1,0639;56,35133026;37,52137471;3,27999997;
14:57:47:744;-0,2211;-1,6205;1,0639;56,35133026;37,52137471;3,27999997;
14:57:47:745;-0,2211;-1,6205;1,0639;56,35133026;37,52137471;3,27999997;
14:57:47:794;-0,2211;-1,6205;1,0639;56,35133026;37,52137471;3,27999997;
14:57:47:797;-0,1609;-1,6071;0,7781;56,35133026;37,52137471;3,27999997;
14:57:47:818;-0,1609;-1,6071;0,7781;56,35133026;37,52137471;3,27999997;
14:57:47:821;-0,1609;-1,6071;0,7781;56,35133026;37,52137471;3,27999997;
14:57:47:825;-0,1609;-1,6071;0,7781;56,35133026;37,52137471;3,27999997;
14:57:47:827;-0,1609;-1,6071;0,7781;56,35133026;37,52137471;3,27999997;
14:57:47:873;-0,1609;-1,6071;0,7781;56,35133026;37,52137471;3,27999997;
14:57:47:876;0,5815;-0,6517;0,2641;56,35133026;37,52137471;3,27999997;
14:57:47:901;0,5815;-0,6517;0,2641;56,35133026;37,52137471;3,27999997;
14:57:47:904;0,5815;-0,6517;0,2641;56,35133026;37,52137471;3,27999997;
14:57:47:907;0,5815;-0,6517;0,2641;56,35133026;37,52137471;3,27999997;
14:57:47:909;0,5815;-0,6517;0,2641;56,35133026;37,52137471;3,27999997;
14:57:47:955;0,5815;-0,6517;0,2641;56,35133026;37,52137471;3,27999997;
14:57:47:959;0,4228;-0,6984;-0,1366;56,35133026;37,52137471;3,27999997;
14:57:47:966;0,4228;-0,6984;-0,1366;56,35133026;37,52137471;3,27999997;
14:57:47:968;0,4228;-0,6984;-0,1366;56,35133026;37,52137471;3,27999997;
14:57:47:970;0,4228;-0,6984;-0,1366;56,35133026;37,52137471;3,27999997;
14:57:48:016;0,4228;-0,6984;-0,1366;56,35133026;37,52137471;3,27999997;
14:57:48:017;0,3512;-0,6144;0,2452;56,35133026;37,52137471;3,27999997;
14:57:48:035;0,3512;-0,6144;0,2452;56,35133026;37,52137471;3,27999997;
14:57:48:039;0,3826;-0,5902;0,2142;56,35133026;37,52137471;3,27999997;
14:57:48:042;0,3826;-0,5902;0,2142;56,35133026;37,52137471;3,27999997;
14:57:48:044;0,3826;-0,5902;0,2142;56,35133026;37,52137471;3,27999997;
14:57:48:047;0,3826;-0,5902;0,2142;56,35133026;37,52137471;3,27999997;
14:57:48:049;0,3826;-0,5902;0,2142;56,35133026;37,52137471;3,27999997;
14:57:48:096;0,3826;-0,5902;0,2142;56,35133026;37,52137471;3,27999997;
14:57:48:098;0,2988;-0,6194;0,0431;56,35133026;37,52137471;3,27999997;
14:57:48:114;0,2988;-0,6194;0,0431;56,35133026;37,52137471;3,27999997;
14:57:48:117;0,2988;-0,6194;0,0431;56,35133026;37,52137471;3,27999997;
14:57:48:119;0,2988;-0,6194;0,0431;56,35133026;37,52137471;3,27999997;
14:57:48:120;0,2988;-0,6194;0,0431;56,35133026;37,52137471;3,27999997;
14:57:48:174;0,2988;-0,6194;0,0431;56,35133026;37,52137471;3,27999997;
14:57:48:197;0,2988;-0,6194;0,0431;56,35133026;37,52137471;3,27999997;
14:57:48:200;0,4036;-0,6413;0,4222;56,35133026;37,52137471;3,27999997;
14:57:48:248;0,4036;-0,6413;0,4222;56,35133026;37,52137471;3,27999997;
14:57:48:250;0,4036;-0,6413;0,4222;56,35133026;37,52137471;3,27999997;
14:57:48:251;0,4036;-0,6413;0,4222;56,35133026;37,52137471;3,27999997;
14:57:48:253;0,4036;-0,6413;0,4222;56,35133026;37,52137471;3,27999997;
14:57:48:255;0,4036;-0,6413;0,4222;56,35133026;37,52137471;3,27999997;
14:57:48:257;0,4036;-0,6413;0,4222;56,35133026;37,52137471;3,27999997;
14:57:48:258;0,4036;-0,6413;0,4222;56,35133026;37,52137471;3,27999997;
14:57:48:260;0,5629;-0,6308;0,3007;56,35133026;37,52137471;3,27999997;
14:57:48:309;0,5629;-0,6308;0,3007;56,35133026;37,52137471;3,27999997;
14:57:48:312;0,1878;-0,9430;-0,6808;56,35133026;37,52137471;3,27999997;
14:57:48:329;0,1878;-0,9430;-0,6808;56,35133026;37,52137471;3,27999997;
14:57:48:332;0,1878;-0,9430;-0,6808;56,35133026;37,52137471;3,27999997;
14:57:48:334;0,1878;-0,9430;-0,6808;56,35133026;37,52137471;3,27999997;
14:57:48:337;0,1878;-0,9430;-0,6808;56,35133026;37,52137471;3,27999997;
14:57:48:339;0,1878;-0,9430;-0,6808;56,35133026;37,52137471;3,27999997;
14:57:48:341;0,1864;-0,8501;-0,7153;56,35133026;37,52137471;3,27999997;
14:57:48:389;0,1864;-0,8501;-0,7153;56,35133026;37,52137471;3,27999997;
14:57:48:391;0,5149;-0,4807;0,3160;56,35133026;37,52137471;3,27999997;
14:57:48:396;0,5149;-0,4807;0,3160;56,35133026;37,52137471;3,27999997;
14:57:48:398;0,5149;-0,4807;0,3160;56,35133026;37,52137471;3,27999997;
14:57:48:399;0,5149;-0,4807;0,3160;56,35133026;37,52137471;3,27999997;
14:57:48:457;0,5149;-0,4807;0,3160;56,35133026;37,52137471;3,27999997;
14:57:48:460;0,7273;-0,2494;1,4421;56,35133026;37,52137471;3,27999997;
14:57:48:476;0,7273;-0,2494;1,4421;56,35133026;37,52137471;3,27999997;
14:57:48:478;0,7273;-0,2494;1,4421;56,35133026;37,52137471;3,27999997;
14:57:48:481;0,7273;-0,2494;1,4421;56,35133026;37,52137471;3,27999997;
14:57:48:483;0,7273;-0,2494;1,4421;56,35133026;37,52137471;3,27999997;
14:57:48:528;0,7273;-0,2494;1,4421;56,35133026;37,52137471;3,27999997;
14:57:48:531;0,4421;-0,4788;-0,0373;56,35133026;37,52137471;3,27999997;
14:57:48:553;0,4421;-0,4788;-0,0373;56,35133026;37,52137471;3,27999997;
14:57:48:556;0,4421;-0,4788;-0,0373;56,35133026;37,52137471;3,27999997;
14:57:48:558;0,4421;-0,4788;-0,0373;56,35133026;37,52137471;3,27999997;
14:57:48:560;0,4421;-0,4788;-0,0373;56,35133026;37,52137471;3,27999997;
14:57:48:607;0,4421;-0,4788;-0,0373;56,35133026;37,52137471;3,27999997;
14:57:48:610;0,4385;-0,4088;0,4971;56,35133026;37,52137471;3,27999997;
14:57:48:658;0,4385;-0,4088;0,4971;56,35133026;37,52137471;3,27999997;
14:57:48:662;0,4385;-0,4088;0,4971;56,35133026;37,52137471;3,27999997;
14:57:48:664;0,4385;-0,4088;0,4971;56,35133026;37,52137471;3,27999997;
14:57:48:666;0,4385;-0,4088;0,4971;56,35133026;37,52137471;3,27999997;
14:57:48:668;0,4385;-0,4088;0,4971;56,35133026;37,52137471;3,27999997;
14:57:48:669;0,4385;-0,4088;0,4971;56,35133026;37,52137471;3,27999997;
14:57:48:672;0,6595;-0,6329;0,0726;56,35133026;37,52137471;3,27999997;
14:57:48:718;0,6595;-0,6329;0,0726;56,35133026;37,52137471;3,27999997;
14:57:48:719;0,5436;-1,0166;-0,2997;56,35133364;37,52133385;2,42000008;
14:57:48:734;0,5436;-1,0166;-0,2997;56,35133364;37,52133385;2,42000008;
14:57:48:736;0,5436;-1,0166;-0,2997;56,35133364;37,52133385;2,42000008;
14:57:48:738;0,5436;-1,0166;-0,2997;56,35133364;37,52133385;2,42000008;
14:57:48:740;0,5436;-1,0166;-0,2997;56,35133364;37,52133385;2,42000008;
14:57:48:758;0,5436;-1,0166;-0,2997;56,35133364;37,52133385;2,42000008;
14:57:48:759;0,4666;-0,9710;-0,2781;56,35133364;37,52133385;2,42000008;
14:57:48:814;0,4666;-0,9710;-0,2781;56,35133364;37,52133385;2,42000008;
14:57:48:817;1,0663;-0,4662;0,3050;56,35133364;37,52133385;2,42000008;
14:57:48:819;1,0663;-0,4662;0,3050;56,35133364;37,52133385;2,42000008;
14:57:48:822;1,0663;-0,4662;0,3050;56,35133364;37,52133385;2,42000008;
14:57:48:825;1,0663;-0,4662;0,3050;56,35133364;37,52133385;2,42000008;
14:57:48:828;1,0663;-0,4662;0,3050;56,35133364;37,52133385;2,42000008;
14:57:48:870;1,0663;-0,4662;0,3050;56,35133364;37,52133385;2,42000008;
14:57:48:873;0,2174;-0,1376;0,0816;56,35133364;37,52133385;2,42000008;
14:57:48:921;0,2174;-0,1376;0,0816;56,35133364;37,52133385;2,42000008;
14:57:48:924;0,2174;-0,1376;0,0816;56,35133364;37,52133385;2,42000008;
14:57:48:926;0,2174;-0,1376;0,0816;56,35133364;37,52133385;2,42000008;
14:57:48:928;0,2174;-0,1376;0,0816;56,35133364;37,52133385;2,42000008;
14:57:48:930;0,2174;-0,1376;0,0816;56,35133364;37,52133385;2,42000008;
14:57:48:980;0,2174;-0,1376;0,0816;56,35133364;37,52133385;2,42000008;
14:57:48:982;0,1982;-0,7204;-1,0940;56,35133364;37,52133385;2,42000008;
14:57:48:998;0,0601;-0,6535;-1,0393;56,35133364;37,52133385;2,42000008;
14:57:49:000;0,0601;-0,6535;-1,0393;56,35133364;37,52133385;2,42000008;
14:57:49:001;0,0601;-0,6535;-1,0393;56,35133364;37,52133385;2,42000008;
14:57:49:003;0,0601;-0,6535;-1,0393;56,35133364;37,52133385;2,42000008;
14:57:49:005;0,0601;-0,6535;-1,0393;56,35133364;37,52133385;2,42000008;
14:57:49:007;0,0601;-0,6535;-1,0393;56,35133364;37,52133385;2,42000008;
14:57:49:050;0,0601;-0,6535;-1,0393;56,35133364;37,52133385;2,42000008;
14:57:49:052;1,1362;-0,3212;-0,7702;56,35133364;37,52133385;2,42000008;
14:57:49:110;1,1362;-0,3212;-0,7702;56,35133364;37,52133385;2,42000008;
14:57:49:111;1,1362;-0,3212;-0,7702;56,35133364;37,52133385;2,42000008;
14:57:49:113;1,1362;-0,3212;-0,7702;56,35133364;37,52133385;2,42000008;
14:57:49:114;1,1362;-0,3212;-0,7702;56,35133364;37,52133385;2,42000008;
14:57:49:115;1,1362;-0,3212;-0,7702;56,35133364;37,52133385;2,42000008;
14:57:49:116;1,1362;-0,3212;-0,7702;56,35133364;37,52133385;2,42000008;
14:57:49:117;1,1362;-0,3212;-0,7702;56,35133364;37,52133385;2,42000008;
14:57:49:119;1,3002;0,1833;1,0714;56,35133364;37,52133385;2,42000008;
14:57:49:171;1,3002;0,1833;1,0714;56,35133364;37,52133385;2,42000008;
14:57:49:173;0,1393;-0,4907;1,8799;56,35133364;37,52133385;2,42000008;
14:57:49:182;0,1393;-0,4907;1,8799;56,35133364;37,52133385;2,42000008;
14:57:49:184;0,1393;-0,4907;1,8799;56,35133364;37,52133385;2,42000008;
14:57:49:187;0,1393;-0,4907;1,8799;56,35133364;37,52133385;2,42000008;
14:57:49:241;0,1393;-0,4907;1,8799;56,35133364;37,52133385;2,42000008;
14:57:49:243;-0,7338;-0,9999;-0,4590;56,35133364;37,52133385;2,42000008;
14:57:49:253;-0,7338;-0,9999;-0,4590;56,35133364;37,52133385;2,42000008;
14:57:49:255;-0,7338;-0,9999;-0,4590;56,35133364;37,52133385;2,42000008;
14:57:49:257;-0,7338;-0,9999;-0,4590;56,35133364;37,52133385;2,42000008;
14:57:49:330;-0,7338;-0,9999;-0,4590;56,35133364;37,52133385;2,42000008;
14:57:49:331;0,1344;0,1096;-0,3383;56,35133364;37,52133385;2,42000008;
14:57:49:333;0,1344;0,1096;-0,3383;56,35133364;37,52133385;2,42000008;
14:57:49:335;0,1344;0,1096;-0,3383;56,35133364;37,52133385;2,42000008;
14:57:49:336;0,1344;0,1096;-0,3383;56,35133364;37,52133385;2,42000008;
14:57:49:337;0,1344;0,1096;-0,3383;56,35133364;37,52133385;2,42000008;
14:57:49:338;0,1344;0,1096;-0,3383;56,35133364;37,52133385;2,42000008;
14:57:49:391;0,1344;0,1096;-0,3383;56,35133364;37,52133385;2,42000008;
14:57:49:393;0,3033;-0,2207;-0,0513;56,35133364;37,52133385;2,42000008;
14:57:49:409;0,3033;-0,2207;-0,0513;56,35133364;37,52133385;2,42000008;
14:57:49:411;0,3033;-0,2207;-0,0513;56,35133364;37,52133385;2,42000008;
14:57:49:412;0,3033;-0,2207;-0,0513;56,35133364;37,52133385;2,42000008;
14:57:49:442;0,3033;-0,2207;-0,0513;56,35133364;37,52133385;2,42000008;
14:57:49:445;-0,2080;-0,6519;0,0416;56,35133364;37,52133385;2,42000008;
14:57:49:471;-0,2080;-0,6519;0,0416;56,35133364;37,52133385;2,42000008;
14:57:49:475;-0,2080;-0,6519;0,0416;56,35133364;37,52133385;2,42000008;
14:57:49:505;-0,2080;-0,6519;0,0416;56,35133364;37,52133385;2,42000008;
14:57:49:508;0,7857;-0,0634;0,5347;56,35133364;37,52133385;2,42000008;
14:57:49:550;0,7857;-0,0634;0,5347;56,35133364;37,52133385;2,42000008;
14:57:49:553;0,7431;-0,0921;0,5572;56,35133364;37,52133385;2,42000008;
14:57:49:557;0,7431;-0,0921;0,5572;56,35133364;37,52133385;2,42000008;
14:57:49:559;0,7431;-0,0921;0,5572;56,35133364;37,52133385;2,42000008;
14:57:49:561;0,7431;-0,0921;0,5572;56,35133364;37,52133385;2,42000008;
14:57:49:563;0,7431;-0,0921;0,5572;56,35133364;37,52133385;2,42000008;
14:57:49:565;0,7431;-0,0921;0,5572;56,35133364;37,52133385;2,42000008;
14:57:49:604;0,7431;-0,0921;0,5572;56,35133364;37,52133385;2,42000008;
14:57:49:608;0,7073;-0,2239;-0,1792;56,35133364;37,52133385;2,42000008;
14:57:49:627;0,7073;-0,2239;-0,1792;56,35133364;37,52133385;2,42000008;
14:57:49:629;0,7073;-0,2239;-0,1792;56,35133364;37,52133385;2,42000008;
14:57:49:630;0,7073;-0,2239;-0,1792;56,35133364;37,52133385;2,42000008;
14:57:49:632;0,7073;-0,2239;-0,1792;56,35133364;37,52133385;2,42000008;
14:57:49:690;0,7073;-0,2239;-0,1792;56,35133364;37,52133385;2,42000008;
14:57:49:691;0,0219;-0,5012;-0,2640;56,35133842;37,52129455;2,49000001;
14:57:49:693;0,0219;-0,5012;-0,2640;56,35133842;37,52129455;2,49000001;
14:57:49:695;0,0219;-0,5012;-0,2640;56,35133842;37,52129455;2,49000001;
14:57:49:696;0,0219;-0,5012;-0,2640;56,35133842;37,52129455;2,49000001;
14:57:49:762;0,0219;-0,5012;-0,2640;56,35133842;37,52129455;2,49000001;
14:57:49:765;0,0317;-0,3397;-0,4983;56,35133842;37,52129455;2,49000001;
14:57:49:768;0,0317;-0,3397;-0,4983;56,35133842;37,52129455;2,49000001;
14:57:49:770;0,0317;-0,3397;-0,4983;56,35133842;37,52129455;2,49000001;
14:57:49:772;0,0317;-0,3397;-0,4983;56,35133842;37,52129455;2,49000001;
14:57:49:773;0,0317;-0,3397;-0,4983;56,35133842;37,52129455;2,49000001;
14:57:49:784;0,0003;-0,2704;-0,5088;56,35133842;37,52129455;2,49000001;
14:57:49:789;0,0003;-0,2704;-0,5088;56,35133842;37,52129455;2,49000001;
14:57:49:836;0,0003;-0,2704;-0,5088;56,35133842;37,52129455;2,49000001;
14:57:49:840;0,5977;-0,2513;0,9914;56,35133842;37,52129455;2,49000001;
14:57:49:842;0,5977;-0,2513;0,9914;56,35133842;37,52129455;2,49000001;
14:57:49:845;0,5977;-0,2513;0,9914;56,35133842;37,52129455;2,49000001;
14:57:49:847;0,5977;-0,2513;0,9914;56,35133842;37,52129455;2,49000001;
14:57:49:849;0,5977;-0,2513;0,9914;56,35133842;37,52129455;2,49000001;
14:57:49:895;0,5977;-0,2513;0,9914;56,35133842;37,52129455;2,49000001;
14:57:49:898;0,3372;-0,3557;-0,2438;56,35133842;37,52129455;2,49000001;
14:57:49:903;0,3372;-0,3557;-0,2438;56,35133842;37,52129455;2,49000001;
14:57:49:906;0,3372;-0,3557;-0,2438;56,35133842;37,52129455;2,49000001;
14:57:49:907;0,3372;-0,3557;-0,2438;56,35133842;37,52129455;2,49000001;
14:57:49:956;0,3372;-0,3557;-0,2438;56,35133842;37,52129455;2,49000001;
14:57:49:959;0,3735;-0,0714;0,0996;56,35133842;37,52129455;2,49000001;
14:57:49:979;0,3735;-0,0714;0,0996;56,35133842;37,52129455;2,49000001;
14:57:49:982;0,3735;-0,0714;0,0996;56,35133842;37,52129455;2,49000001;
14:57:49:984;0,3735;-0,0714;0,0996;56,35133842;37,52129455;2,49000001;
14:57:49:986;0,3735;-0,0714;0,0996;56,35133842;37,52129455;2,49000001;
14:57:50:036;0,3735;-0,0714;0,0996;56,35133842;37,52129455;2,49000001;
14:57:50:039;0,0133;-0,3576;-0,1359;56,35133842;37,52129455;2,49000001;
14:57:50:059;0,0133;-0,3576;-0,1359;56,35133842;37,52129455;2,49000001;
14:57:50:062;0,0133;-0,3576;-0,1359;56,35133842;37,52129455;2,49000001;
14:57:50:065;0,0133;-0,3576;-0,1359;56,35133842;37,52129455;2,49000001;
14:57:50:066;0,0133;-0,3576;-0,1359;56,35133842;37,52129455;2,49000001;
14:57:50:117;0,0133;-0,3576;-0,1359;56,35133842;37,52129455;2,49000001;
14:57:50:119;0,2998;-0,3591;0,2924;56,35133842;37,52129455;2,49000001;
14:57:50:122;0,2998;-0,3591;0,2924;56,35133842;37,52129455;2,49000001;
14:57:50:125;0,2998;-0,3591;0,2924;56,35133842;37,52129455;2,49000001;
14:57:50:126;0,2998;-0,3591;0,2924;56,35133842;37,52129455;2,49000001;
14:57:50:175;0,2998;-0,3591;0,2924;56,35133842;37,52129455;2,49000001;
14:57:50:177;0,6673;-0,3088;0,3420;56,35133842;37,52129455;2,49000001;
14:57:50:197;0,6673;-0,3088;0,3420;56,35133842;37,52129455;2,49000001;
14:57:50:198;0,6134;-0,2925;0,3528;56,35133842;37,52129455;2,49000001;
14:57:50:200;0,6134;-0,2925;0,3528;56,35133842;37,52129455;2,49000001;
14:57:50:202;0,6134;-0,2925;0,3528;56,35133842;37,52129455;2,49000001;
14:57:50:204;0,6134;-0,2925;0,3528;56,35133842;37,52129455;2,49000001;
14:57:50:206;0,6134;-0,2925;0,3528;56,35133842;37,52129455;2,49000001;
14:57:50:275;0,6134;-0,2925;0,3528;56,35133842;37,52129455;2,49000001;
14:57:50:278;0,6725;-0,1734;0,1755;56,35133842;37,52129455;2,49000001;
14:57:50:281;0,6725;-0,1734;0,1755;56,35133842;37,52129455;2,49000001;
14:57:50:282;0,6725;-0,1734;0,1755;56,35133842;37,52129455;2,49000001;
14:57:50:284;0,6725;-0,1734;0,1755;56,35133842;37,52129455;2,49000001;
14:57:50:335;0,6725;-0,1734;0,1755;56,35133842;37,52129455;2,49000001;
14:57:50:348;0,6725;-0,1734;0,1755;56,35133842;37,52129455;2,49000001;
14:57:50:350;0,0057;-0,3553;-0,1203;56,35133842;37,52129455;2,49000001;
14:57:50:408;0,0057;-0,3553;-0,1203;56,35133842;37,52129455;2,49000001;
14:57:50:411;-0,2830;-0,2569;0,3406;56,35133842;37,52129455;2,49000001;
14:57:50:413;-0,2830;-0,2569;0,3406;56,35133842;37,52129455;2,49000001;
14:57:50:415;-0,2830;-0,2569;0,3406;56,35133842;37,52129455;2,49000001;
14:57:50:417;-0,2830;-0,2569;0,3406;56,35133842;37,52129455;2,49000001;
14:57:50:418;-0,2830;-0,2569;0,3406;56,35133842;37,52129455;2,49000001;
14:57:50:420;-0,2830;-0,2569;0,3406;56,35133842;37,52129455;2,49000001;
14:57:50:422;-0,2830;-0,2569;0,3406;56,35133842;37,52129455;2,49000001;
14:57:50:468;-0,2830;-0,2569;0,3406;56,35133842;37,52129455;2,49000001;
14:57:50:471;-0,3312;-0,4705;-0,4855;56,35133842;37,52129455;2,49000001;
14:57:50:489;-0,3312;-0,4705;-0,4855;56,35133842;37,52129455;2,49000001;
14:57:50:492;-0,3312;-0,4705;-0,4855;56,35133842;37,52129455;2,49000001;
14:57:50:495;-0,3312;-0,4705;-0,4855;56,35133842;37,52129455;2,49000001;
14:57:50:497;-0,3312;-0,4705;-0,4855;56,35133842;37,52129455;2,49000001;
14:57:50:549;-0,3312;-0,4705;-0,4855;56,35133842;37,52129455;2,49000001;
14:57:50:552;0,4648;-0,2395;-0,1319;56,35133842;37,52129455;2,49000001;
14:57:50:555;0,4648;-0,2395;-0,1319;56,35133842;37,52129455;2,49000001;
14:57:50:557;0,4648;-0,2395;-0,1319;56,35133842;37,52129455;2,49000001;
14:57:50:559;0,4648;-0,2395;-0,1319;56,35133842;37,52129455;2,49000001;
14:57:50:609;0,4648;-0,2395;-0,1319;56,35133842;37,52129455;2,49000001;
14:57:50:612;1,1010;0,2312;0,8756;56,35133842;37,52129455;2,49000001;
14:57:50:628;1,1010;0,2312;0,8756;56,35133842;37,52129455;2,49000001;
14:57:50:633;1,1509;0,1823;0,8491;56,35133842;37,52129455;2,49000001;
14:57:50:637;1,1509;0,1823;0,8491;56,35133842;37,52129455;2,49000001;
14:57:50:640;1,1509;0,1823;0,8491;56,35133842;37,52129455;2,49000001;
14:57:50:642;1,1509;0,1823;0,8491;56,35133842;37,52129455;2,49000001;
14:57:50:644;1,1509;0,1823;0,8491;56,35133842;37,52129455;2,49000001;
14:57:50:688;1,1509;0,1823;0,8491;56,35133842;37,52129455;2,49000001;
14:57:50:690;0,1485;-0,2028;-0,1092;56,35134383;37,52125824;2,34999990;
14:57:50:706;0,1485;-0,2028;-0,1092;56,35134383;37,52125824;2,34999990;
14:57:50:709;0,1485;-0,2028;-0,1092;56,35134383;37,52125824;2,34999990;
14:57:50:710;0,1485;-0,2028;-0,1092;56,35134383;37,52125824;2,34999990;
14:57:50:711;0,1485;-0,2028;-0,1092;56,35134383;37,52125824;2,34999990;
14:57:50:747;0,1485;-0,2028;-0,1092;56,35134383;37,52125824;2,34999990;
14:57:50:749;-0,0523;-0,3232;-0,1914;56,35134383;37,52125824;2,34999990;
14:57:50:766;-0,0523;-0,3232;-0,1914;56,35134383;37,52125824;2,34999990;
14:57:50:767;-0,0523;-0,3232;-0,1914;56,35134383;37,52125824;2,34999990;
14:57:50:805;-0,0523;-0,3232;-0,1914;56,35134383;37,52125824;2,34999990;
14:57:50:808;0,6962;-0,0164;-0,4264;56,35134383;37,52125824;2,34999990;
14:57:50:845;0,6962;-0,0164;-0,4264;56,35134383;37,52125824;2,34999990;
14:57:50:847;0,6962;-0,0164;-0,4264;56,35134383;37,52125824;2,34999990;
14:57:50:848;0,6962;-0,0164;-0,4264;56,35134383;37,52125824;2,34999990;
14:57:50:850;0,6962;-0,0164;-0,4264;56,35134383;37,52125824;2,34999990;
14:57:50:851;0,6962;-0,0164;-0,4264;56,35134383;37,52125824;2,34999990;
14:57:50:900;0,6962;-0,0164;-0,4264;56,35134383;37,52125824;2,34999990;
14:57:50:903;-0,0894;0,1149;-0,2288;56,35134383;37,52125824;2,34999990;
14:57:50:922;-0,0894;0,1149;-0,2288;56,35134383;37,52125824;2,34999990;
14:57:50:926;-0,0951;0,1475;-0,2394;56,35134383;37,52125824;2,34999990;
14:57:50:928;-0,0951;0,1475;-0,2394;56,35134383;37,52125824;2,34999990;
14:57:50:930;-0,0951;0,1475;-0,2394;56,35134383;37,52125824;2,34999990;
14:57:50:931;-0,0951;0,1475;-0,2394;56,35134383;37,52125824;2,34999990;
14:57:50:933;-0,0951;0,1475;-0,2394;56,35134383;37,52125824;2,34999990;
14:57:50:981;-0,0951;0,1475;-0,2394;56,35134383;37,52125824;2,34999990;
14:57:50:984;0,2058;0,1016;0,3339;56,35134383;37,52125824;2,34999990;
14:57:50:987;0,2058;0,1016;0,3339;56,35134383;37,52125824;2,34999990;
14:57:50:989;0,2058;0,1016;0,3339;56,35134383;37,52125824;2,34999990;
14:57:50:991;0,2058;0,1016;0,3339;56,35134383;37,52125824;2,34999990;
14:57:51:060;0,2058;0,1016;0,3339;56,35134383;37,52125824;2,34999990;
14:57:51:062;0,2058;0,1016;0,3339;56,35134383;37,52125824;2,34999990;
14:57:51:064;0,2058;0,1016;0,3339;56,35134383;37,52125824;2,34999990;
14:57:51:066;0,2058;0,1016;0,3339;56,35134383;37,52125824;2,34999990;
14:57:51:068;0,2058;0,1016;0,3339;56,35134383;37,52125824;2,34999990;
14:57:51:073;0,2528;0,0163;-0,3162;56,35134383;37,52125824;2,34999990;
14:57:51:122;0,3139;-0,0428;0,4659;56,35134383;37,52125824;2,34999990;
14:57:51:125;0,3139;-0,0428;0,4659;56,35134383;37,52125824;2,34999990;
14:57:51:139;0,3139;-0,0428;0,4659;56,35134383;37,52125824;2,34999990;
14:57:51:141;0,3139;-0,0428;0,4659;56,35134383;37,52125824;2,34999990;
14:57:51:142;0,3139;-0,0428;0,4659;56,35134383;37,52125824;2,34999990;
14:57:51:192;0,3139;-0,0428;0,4659;56,35134383;37,52125824;2,34999990;
14:57:51:194;0,0894;-0,0165;-0,6550;56,35134383;37,52125824;2,34999990;
14:57:51:198;0,0894;-0,0165;-0,6550;56,35134383;37,52125824;2,34999990;
14:57:51:200;0,0894;-0,0165;-0,6550;56,35134383;37,52125824;2,34999990;
14:57:51:202;0,0894;-0,0165;-0,6550;56,35134383;37,52125824;2,34999990;
14:57:51:253;0,0894;-0,0165;-0,6550;56,35134383;37,52125824;2,34999990;
14:57:51:255;0,3172;-0,0346;-0,1221;56,35134383;37,52125824;2,34999990;
14:57:51:272;0,3172;-0,0346;-0,1221;56,35134383;37,52125824;2,34999990;
14:57:51:275;0,3172;-0,0346;-0,1221;56,35134383;37,52125824;2,34999990;
14:57:51:277;0,3172;-0,0346;-0,1221;56,35134383;37,52125824;2,34999990;
14:57:51:278;0,3172;-0,0346;-0,1221;56,35134383;37,52125824;2,34999990;
14:57:51:317;0,3172;-0,0346;-0,1221;56,35134383;37,52125824;2,34999990;
14:57:51:319;0,1141;-0,3090;-0,2703;56,35134383;37,52125824;2,34999990;
14:57:51:351;0,1141;-0,3090;-0,2703;56,35134383;37,52125824;2,34999990;
14:57:51:354;0,0885;-0,2977;-0,2567;56,35134383;37,52125824;2,34999990;
14:57:51:357;0,0885;-0,2977;-0,2567;56,35134383;37,52125824;2,34999990;
14:57:51:359;0,0885;-0,2977;-0,2567;56,35134383;37,52125824;2,34999990;
14:57:51:360;0,0885;-0,2977;-0,2567;56,35134383;37,52125824;2,34999990;
14:57:51:362;0,0885;-0,2977;-0,2567;56,35134383;37,52125824;2,34999990;
14:57:51:403;0,0885;-0,2977;-0,2567;56,35134383;37,52125824;2,34999990;
14:57:51:406;0,6403;0,1279;-0,2011;56,35134383;37,52125824;2,34999990;
14:57:51:415;0,6403;0,1279;-0,2011;56,35134383;37,52125824;2,34999990;
14:57:51:417;0,6403;0,1279;-0,2011;56,35134383;37,52125824;2,34999990;
14:57:51:419;0,6403;0,1279;-0,2011;56,35134383;37,52125824;2,34999990;
14:57:51:464;0,6403;0,1279;-0,2011;56,35134383;37,52125824;2,34999990;
14:57:51:466;0,4138;0,0898;0,2479;56,35134383;37,52125824;2,34999990;
14:57:51:493;0,4138;0,0898;0,2479;56,35134383;37,52125824;2,34999990;
14:57:51:496;0,4138;0,0898;0,2479;56,35134383;37,52125824;2,34999990;
14:57:51:497;0,4138;0,0898;0,2479;56,35134383;37,52125824;2,34999990;
14:57:51:499;0,4138;0,0898;0,2479;56,35134383;37,52125824;2,34999990;
14:57:51:534;0,4138;0,0898;0,2479;56,35134383;37,52125824;2,34999990;
14:57:51:536;-0,2987;-0,3256;-0,6544;56,35134383;37,52125824;2,34999990;
14:57:51:571;-0,2987;-0,3256;-0,6544;56,35134383;37,52125824;2,34999990;
14:57:51:574;-0,2987;-0,3256;-0,6544;56,35134383;37,52125824;2,34999990;
14:57:51:576;-0,2987;-0,3256;-0,6544;56,35134383;37,52125824;2,34999990;
14:57:51:578;-0,2987;-0,3256;-0,6544;56,35134383;37,52125824;2,34999990;
14:57:51:624;-0,2987;-0,3256;-0,6544;56,35134383;37,52125824;2,34999990;
14:57:51:628;0,5243;0,2047;0,2797;56,35134383;37,52125824;2,34999990;
14:57:51:631;0,5243;0,2047;0,2797;56,35134383;37,52125824;2,34999990;
14:57:51:633;0,5243;0,2047;0,2797;56,35134383;37,52125824;2,34999990;
14:57:51:636;0,5243;0,2047;0,2797;56,35134383;37,52125824;2,34999990;
14:57:51:683;0,5243;0,2047;0,2797;56,35134383;37,52125824;2,34999990;
14:57:51:685;-0,1974;-0,2613;-0,3814;56,35135014;37,52121837;2,57999992;
14:57:51:706;-0,1974;-0,2613;-0,3814;56,35135014;37,52121837;2,57999992;
14:57:51:708;-0,2345;-0,2567;-0,3540;56,35135014;37,52121837;2,57999992;
14:57:51:710;-0,2345;-0,2567;-0,3540;56,35135014;37,52121837;2,57999992;
14:57:51:711;-0,2345;-0,2567;-0,3540;56,35135014;37,52121837;2,57999992;
14:57:51:712;-0,2345;-0,2567;-0,3540;56,35135014;37,52121837;2,57999992;
14:57:51:713;-0,2345;-0,2567;-0,3540;56,35135014;37,52121837;2,57999992;
14:57:51:765;-0,2345;-0,2567;-0,3540;56,35135014;37,52121837;2,57999992;
14:57:51:768;0,3437;-0,1472;-0,2819;56,35135014;37,52121837;2,57999992;
14:57:51:789;0,3437;-0,1472;-0,2819;56,35135014;37,52121837;2,57999992;
14:57:51:792;0,3437;-0,1472;-0,2819;56,35135014;37,52121837;2,57999992;
14:57:51:794;0,3437;-0,1472;-0,2819;56,35135014;37,52121837;2,57999992;
14:57:51:796;0,3437;-0,1472;-0,2819;56,35135014;37,52121837;2,57999992;
14:57:51:829;0,3437;-0,1472;-0,2819;56,35135014;37,52121837;2,57999992;
14:57:51:831;0,5177;-0,0086;-0,3890;56,35135014;37,52121837;2,57999992;
14:57:51:847;0,5177;-0,0086;-0,3890;56,35135014;37,52121837;2,57999992;
14:57:51:849;0,5177;-0,0086;-0,3890;56,35135014;37,52121837;2,57999992;
14:57:51:885;0,5177;-0,0086;-0,3890;56,35135014;37,52121837;2,57999992;
14:57:51:887;0,4134;0,1153;0,3243;56,35135014;37,52121837;2,57999992;
14:57:51:924;0,4134;0,1153;0,3243;56,35135014;37,52121837;2,57999992;
14:57:51:928;0,4134;0,1153;0,3243;56,35135014;37,52121837;2,57999992;
14:57:51:929;0,4134;0,1153;0,3243;56,35135014;37,52121837;2,57999992;
14:57:51:931;0,4134;0,1153;0,3243;56,35135014;37,52121837;2,57999992;
14:57:51:933;0,4134;0,1153;0,3243;56,35135014;37,52121837;2,57999992;
14:57:51:987;0,2153;-0,1691;-0,3557;56,35135014;37,52121837;2,57999992;
14:57:51:990;0,2153;-0,1691;-0,3557;56,35135014;37,52121837;2,57999992;
14:57:52:003;0,2153;-0,1691;-0,3557;56,35135014;37,52121837;2,57999992;
14:57:52:005;0,2153;-0,1691;-0,3557;56,35135014;37,52121837;2,57999992;
14:57:52:006;0,2153;-0,1691;-0,3557;56,35135014;37,52121837;2,57999992;
14:57:52:048;0,2153;-0,1691;-0,3557;56,35135014;37,52121837;2,57999992;
14:57:52:052;0,4164;-0,0143;-0,1134;56,35135014;37,52121837;2,57999992;
14:57:52:062;0,4164;-0,0143;-0,1134;56,35135014;37,52121837;2,57999992;
14:57:52:065;0,4164;-0,0143;-0,1134;56,35135014;37,52121837;2,57999992;
14:57:52:066;0,4164;-0,0143;-0,1134;56,35135014;37,52121837;2,57999992;
14:57:52:106;0,4164;-0,0143;-0,1134;56,35135014;37,52121837;2,57999992;
14:57:52:107;0,1210;0,0625;-0,2194;56,35135014;37,52121837;2,57999992;
14:57:52:139;0,1210;0,0625;-0,2194;56,35135014;37,52121837;2,57999992;
14:57:52:141;0,1309;0,0667;-0,2248;56,35135014;37,52121837;2,57999992;
14:57:52:142;0,1309;0,0667;-0,2248;56,35135014;37,52121837;2,57999992;
14:57:52:144;0,1309;0,0667;-0,2248;56,35135014;37,52121837;2,57999992;
14:57:52:145;0,1309;0,0667;-0,2248;56,35135014;37,52121837;2,57999992;
14:57:52:147;0,1309;0,0667;-0,2248;56,35135014;37,52121837;2,57999992;
14:57:52:195;0,1309;0,0667;-0,2248;56,35135014;37,52121837;2,57999992;
14:57:52:196;-0,1990;-0,0084;-0,0749;56,35135014;37,52121837;2,57999992;
14:57:52:219;-0,1990;-0,0084;-0,0749;56,35135014;37,52121837;2,57999992;
14:57:52:220;-0,1990;-0,0084;-0,0749;56,35135014;37,52121837;2,57999992;
14:57:52:221;-0,1990;-0,0084;-0,0749;56,35135014;37,52121837;2,57999992;
14:57:52:224;-0,1990;-0,0084;-0,0749;56,35135014;37,52121837;2,57999992;
14:57:52:277;-0,1990;-0,0084;-0,0749;56,35135014;37,52121837;2,57999992;
14:57:52:278;0,8406;0,0823;-0,1380;56,35135014;37,52121837;2,57999992;
14:57:52:279;0,8406;0,0823;-0,1380;56,35135014;37,52121837;2,57999992;
14:57:52:280;0,8406;0,0823;-0,1380;56,35135014;37,52121837;2,57999992;
14:57:52:281;0,8406;0,0823;-0,1380;56,35135014;37,52121837;2,57999992;
14:57:52:309;0,8406;0,0823;-0,1380;56,35135014;37,52121837;2,57999992;
14:57:52:310;0,8453;0,0858;-0,1483;56,35135014;37,52121837;2,57999992;
14:57:52:355;0,8453;0,0858;-0,1483;56,35135014;37,52121837;2,57999992;
14:57:52:356;0,8453;0,0858;-0,1483;56,35135014;37,52121837;2,57999992;
14:57:52:357;0,8453;0,0858;-0,1483;56,35135014;37,52121837;2,57999992;
14:57:52:358;0,8453;0,0858;-0,1483;56,35135014;37,52121837;2,57999992;
14:57:52:418;0,8453;0,0858;-0,1483;56,35135014;37,52121837;2,57999992;
14:57:52:420;-0,3793;-0,1655;-0,0146;56,35135014;37,52121837;2,57999992;
14:57:52:435;-0,3793;-0,1655;-0,0146;56,35135014;37,52121837;2,57999992;
14:57:52:438;-0,4045;-0,1747;0,0088;56,35135014;37,52121837;2,57999992;
14:57:52:441;-0,4045;-0,1747;0,0088;56,35135014;37,52121837;2,57999992;
14:57:52:444;-0,4045;-0,1747;0,0088;56,35135014;37,52121837;2,57999992;
14:57:52:447;-0,4045;-0,1747;0,0088;56,35135014;37,52121837;2,57999992;
14:57:52:449;-0,4045;-0,1747;0,0088;56,35135014;37,52121837;2,57999992;
14:57:52:488;-0,4045;-0,1747;0,0088;56,35135014;37,52121837;2,57999992;
14:57:52:490;0,0983;-0,1080;-0,1868;56,35135014;37,52121837;2,57999992;
14:57:52:494;0,0983;-0,1080;-0,1868;56,35135014;37,52121837;2,57999992;
14:57:52:495;0,0983;-0,1080;-0,1868;56,35135014;37,52121837;2,57999992;
14:57:52:496;0,0983;-0,1080;-0,1868;56,35135014;37,52121837;2,57999992;
14:57:52:549;0,0983;-0,1080;-0,1868;56,35135014;37,52121837;2,57999992;
14:57:52:552;0,2552;0,1192;-0,3866;56,35135014;37,52121837;2,57999992;
14:57:52:572;0,2552;0,1192;-0,3866;56,35135014;37,52121837;2,57999992;
14:57:52:575;0,2552;0,1192;-0,3866;56,35135014;37,52121837;2,57999992;
14:57:52:578;0,2552;0,1192;-0,3866;56,35135014;37,52121837;2,57999992;
14:57:52:579;0,2552;0,1192;-0,3866;56,35135014;37,52121837;2,57999992;
14:57:52:630;0,2552;0,1192;-0,3866;56,35135014;37,52121837;2,57999992;
14:57:52:632;0,1824;-0,2948;-0,6831;56,35135014;37,52121837;2,57999992;
14:57:52:651;0,1824;-0,2948;-0,6831;56,35135014;37,52121837;2,57999992;
14:57:52:653;0,1824;-0,2948;-0,6831;56,35135014;37,52121837;2,57999992;
14:57:52:658;0,1824;-0,2948;-0,6831;56,35135014;37,52121837;2,57999992;
14:57:52:660;0,1824;-0,2948;-0,6831;56,35135014;37,52121837;2,57999992;
14:57:52:710;0,2943;0,0031;-0,1369;56,35135014;37,52121837;2,57999992;
14:57:52:713;0,2943;0,0031;-0,1369;56,35135811;37,52116985;3,02999997;
14:57:52:715;0,2943;0,0031;-0,1369;56,35135811;37,52116985;3,02999997;
14:57:52:717;0,2943;0,0031;-0,1369;56,35135811;37,52116985;3,02999997;
14:57:52:718;0,2943;0,0031;-0,1369;56,35135811;37,52116985;3,02999997;
14:57:52:770;0,2943;0,0031;-0,1369;56,35135811;37,52116985;3,02999997;
14:57:52:773;0,2292;0,1488;0,5778;56,35135811;37,52116985;3,02999997;
14:57:52:789;0,2292;0,1488;0,5778;56,35135811;37,52116985;3,02999997;
14:57:52:791;0,2220;0,1032;0,5926;56,35135811;37,52116985;3,02999997;
14:57:52:794;0,2220;0,1032;0,5926;56,35135811;37,52116985;3,02999997;
14:57:52:796;0,2220;0,1032;0,5926;56,35135811;37,52116985;3,02999997;
14:57:52:798;0,2220;0,1032;0,5926;56,35135811;37,52116985;3,02999997;
14:57:52:800;0,2220;0,1032;0,5926;56,35135811;37,52116985;3,02999997;
14:57:52:853;0,2220;0,1032;0,5926;56,35135811;37,52116985;3,02999997;
14:57:52:856;-0,2851;-0,2210;-0,6350;56,35135811;37,52116985;3,02999997;
14:57:52:869;-0,2851;-0,2210;-0,6350;56,35135811;37,52116985;3,02999997;
14:57:52:871;-0,2851;-0,2210;-0,6350;56,35135811;37,52116985;3,02999997;
14:57:52:874;-0,2851;-0,2210;-0,6350;56,35135811;37,52116985;3,02999997;
14:57:52:921;-0,2851;-0,2210;-0,6350;56,35135811;37,52116985;3,02999997;
14:57:52:926;0,3694;0,1089;0,3158;56,35135811;37,52116985;3,02999997;
14:57:52:929;0,3694;0,1089;0,3158;56,35135811;37,52116985;3,02999997;
14:57:52:931;0,3694;0,1089;0,3158;56,35135811;37,52116985;3,02999997;
14:57:52:933;0,3694;0,1089;0,3158;56,35135811;37,52116985;3,02999997;
14:57:52:981;0,3694;0,1089;0,3158;56,35135811;37,52116985;3,02999997;
14:57:52:984;0,4744;-0,0903;0,2113;56,35135811;37,52116985;3,02999997;
14:57:53:005;0,4744;-0,0903;0,2113;56,35135811;37,52116985;3,02999997;
14:57:53:009;0,4744;-0,0903;0,2113;56,35135811;37,52116985;3,02999997;
14:57:53:011;0,4744;-0,0903;0,2113;56,35135811;37,52116985;3,02999997;
14:57:53:013;0,4744;-0,0903;0,2113;56,35135811;37,52116985;3,02999997;
14:57:53:061;0,4744;-0,0903;0,2113;56,35135811;37,52116985;3,02999997;
14:57:53:064;0,3826;0,1081;0,2800;56,35135811;37,52116985;3,02999997;
14:57:53:085;0,3826;0,1081;0,2800;56,35135811;37,52116985;3,02999997;
14:57:53:088;0,3826;0,1081;0,2800;56,35135811;37,52116985;3,02999997;
14:57:53:090;0,3826;0,1081;0,2800;56,35135811;37,52116985;3,02999997;
14:57:53:092;0,3826;0,1081;0,2800;56,35135811;37,52116985;3,02999997;
14:57:53:103;0,3826;0,1081;0,2800;56,35135811;37,52116985;3,02999997;
14:57:53:106;0,3947;0,0994;0,2688;56,35135811;37,52116985;3,02999997;
14:57:53:143;0,3947;0,0994;0,2688;56,35135811;37,52116985;3,02999997;
14:57:53:151;0,3947;0,0994;0,2688;56,35135811;37,52116985;3,02999997;
14:57:53:152;0,0559;0,0052;0,1894;56,35135811;37,52116985;3,02999997;
14:57:53:211;0,0559;0,0052;0,1894;56,35135811;37,52116985;3,02999997;
14:57:53:213;-0,1374;-0,1494;-0,5790;56,35135811;37,52116985;3,02999997;
14:57:53:216;-0,1374;-0,1494;-0,5790;56,35135811;37,52116985;3,02999997;
14:57:53:218;-0,1374;-0,1494;-0,5790;56,35135811;37,52116985;3,02999997;
