
time;ax;ay;az;Latitude;Longitude;Speed (m/s);
19:02:31:487;0,0000;0,0000;0,0000;0,00000000;0,00000000;0,00000000;
19:02:31:509;0,0000;0,0000;0,0000;56,33931600;37,52185021;0,00000000;
19:02:31:514;0,0000;0,0000;0,0000;56,33931600;37,52185021;0,00000000;
19:02:31:516;0,0000;0,0000;-0,0000;56,33931600;37,52185021;0,00000000;
19:02:31:541;0,0000;0,0000;-0,0000;56,33931600;37,52185021;0,00000000;
19:02:31:542;0,0000;0,0000;-0,0000;56,33931600;37,52185021;0,00000000;
19:02:31:562;0,0000;0,0000;-0,0000;56,33931600;37,52185021;0,00000000;
19:02:31:584;0,0000;0,0000;-0,0000;56,33931600;37,52185021;0,00000000;
19:02:31:584;0,0617;-0,0444;-0,1504;56,33931600;37,52185021;0,00000000;
19:02:31:602;0,0617;-0,0444;-0,1504;56,33931600;37,52185021;0,00000000;
19:02:31:607;0,1204;0,1070;-0,1566;56,33931600;37,52185021;0,00000000;
19:02:31:694;0,1204;0,1070;-0,1566;56,33931600;37,52185021;0,00000000;
19:02:31:697;0,1119;0,1304;-0,1261;56,33931600;37,52185021;0,00000000;
19:02:31:699;0,1119;0,1304;-0,1261;56,33931600;37,52185021;0,00000000;
19:02:31:758;-0,3677;-0,0885;-0,2000;56,33931600;37,52185021;0,00000000;
19:02:31:761;-0,3677;-0,0885;-0,2000;56,33931600;37,52185021;0,00000000;
19:02:31:763;-0,3677;-0,0885;-0,2000;56,33931600;37,52185021;0,00000000;
19:02:31:815;-0,3677;-0,0885;-0,2000;56,33931600;37,52185021;0,00000000;
19:02:31:817;0,4457;0,3905;0,1249;56,33931600;37,52185021;0,00000000;
19:02:31:821;0,4457;0,3905;0,1249;56,33931600;37,52185021;0,00000000;
19:02:31:896;0,4457;0,3905;0,1249;56,33931600;37,52185021;0,00000000;
19:02:31:898;0,4457;0,3905;0,1249;56,33931600;37,52185021;0,00000000;
19:02:31:900;0,3241;-0,1557;-0,6867;56,33931600;37,52185021;0,00000000;
19:02:31:954;0,3241;-0,1557;-0,6867;56,33931600;37,52185021;0,00000000;
19:02:31:956;0,3241;-0,1557;-0,6867;56,33931600;37,52185021;0,00000000;
19:02:31:957;3,2564;1,2744;1,6502;56,33931600;37,52185021;0,00000000;
19:02:32:015;3,2564;1,2744;1,6502;56,33931600;37,52185021;0,00000000;
19:02:32:016;-0,5563;-0,3380;-0,4962;56,33931600;37,52185021;0,00000000;
19:02:32:018;-0,5563;-0,3380;-0,4962;56,33931600;37,52185021;0,00000000;
19:02:32:076;-0,5563;-0,3380;-0,4962;56,33931600;37,52185021;0,00000000;
19:02:32:076;-0,5563;-0,3380;-0,4962;56,33931600;37,52185021;0,00000000;
19:02:32:077;0,7535;0,4605;0,6196;56,33931600;37,52185021;0,00000000;
19:02:32:100;0,7535;0,4605;0,6196;56,33931600;37,52185021;0,00000000;
19:02:32:101;0,7138;0,5583;0,4818;56,33931600;37,52185021;0,00000000;
19:02:32:156;0,7138;0,5583;0,4818;56,33931600;37,52185021;0,00000000;
19:02:32:159;0,7138;0,5583;0,4818;56,33931600;37,52185021;0,00000000;
19:02:32:165;-0,3998;0,1388;0,5707;56,33931600;37,52185021;0,00000000;
19:02:32:217;-0,3998;0,1388;0,5707;56,33931600;37,52185021;0,00000000;
19:02:32:218;-0,3998;0,1388;0,5707;56,33931600;37,52185021;0,00000000;
19:02:32:219;-0,2368;-0,4691;0,6385;56,33931600;37,52185021;0,00000000;
19:02:32:276;-0,2368;-0,4691;0,6385;56,33931600;37,52185021;0,00000000;
19:02:32:278;-0,2368;-0,4691;0,6385;56,33931600;37,52185021;0,00000000;
19:02:32:279;0,6599;-0,8330;-0,4550;56,33931600;37,52185021;0,00000000;
19:02:32:338;0,6599;-0,8330;-0,4550;56,33931600;37,52185021;0,00000000;
19:02:32:340;0,6599;-0,8330;-0,4550;56,33931600;37,52185021;0,00000000;
19:02:32:341;1,1800;-1,6755;0,7610;56,33931600;37,52185021;0,00000000;
19:02:32:363;1,1800;-1,6755;0,7610;56,33931600;37,52185021;0,00000000;
19:02:32:419;1,1800;-1,6755;0,7610;56,33931600;37,52185021;0,00000000;
19:02:32:425;1,1800;-1,6755;0,7610;56,33931600;37,52185021;0,00000000;
19:02:32:427;0,1862;-0,6089;0,6506;56,33931600;37,52185021;0,00000000;
19:02:32:478;0,1862;-0,6089;0,6506;56,33931600;37,52185021;0,00000000;
19:02:32:479;0,1862;-0,6089;0,6506;56,33931600;37,52185021;0,00000000;
19:02:32:481;-0,5462;0,0875;0,2380;56,33931600;37,52185021;0,00000000;
19:02:32:542;-0,5462;0,0875;0,2380;56,33931600;37,52185021;0,00000000;
19:02:32:544;-0,5462;0,0875;0,2380;56,33931600;37,52185021;0,00000000;
19:02:32:545;-0,6180;0,2746;-0,0611;56,33931600;37,52185021;0,00000000;
19:02:32:598;-0,6180;0,2746;-0,0611;56,33931600;37,52185021;0,00000000;
19:02:32:599;-0,6180;0,2746;-0,0611;56,33931600;37,52185021;0,00000000;
19:02:32:600;-0,1122;0,0173;0,4474;56,33931600;37,52185021;0,00000000;
19:02:32:679;-0,1122;0,0173;0,4474;56,33931600;37,52185021;0,00000000;
19:02:32:680;0,1880;-0,3167;0,2752;56,33931600;37,52185021;0,00000000;
19:02:32:682;0,1880;-0,3167;0,2752;56,33931600;37,52185021;0,00000000;
19:02:32:740;0,1880;-0,3167;0,2752;56,33931600;37,52185021;0,00000000;
19:02:32:741;0,1880;-0,3167;0,2752;56,33931600;37,52185021;0,00000000;
19:02:32:742;0,0329;0,5270;-0,1298;56,33931600;37,52185021;0,00000000;
19:02:32:799;0,0329;0,5270;-0,1298;56,33931600;37,52185021;0,00000000;
19:02:32:800;0,0329;0,5270;-0,1298;56,33931600;37,52185021;0,00000000;
19:02:32:803;0,2579;-0,4694;-1,7528;56,33931600;37,52185021;0,00000000;
19:02:32:859;0,2579;-0,4694;-1,7528;56,33931600;37,52185021;0,00000000;
19:02:32:860;0,2579;-0,4694;-1,7528;56,33931600;37,52185021;0,00000000;
19:02:32:862;2,0513;-0,3702;0,1837;56,33931600;37,52185021;0,00000000;
19:02:32:885;2,0513;-0,3702;0,1837;56,33931600;37,52185021;0,00000000;
19:02:32:888;1,7299;0,2206;-0,3763;56,33931600;37,52185021;0,00000000;
19:02:32:942;1,7299;0,2206;-0,3763;56,33931600;37,52185021;0,00000000;
19:02:32:943;1,7299;0,2206;-0,3763;56,33931600;37,52185021;0,00000000;
19:02:32:944;0,6674;0,5551;0,7810;56,33931600;37,52185021;0,00000000;
19:02:33:001;0,6674;0,5551;0,7810;56,33931600;37,52185021;0,00000000;
19:02:33:002;0,6674;0,5551;0,7810;56,33931600;37,52185021;0,00000000;
19:02:33:004;0,5189;0,1766;0,3589;56,33931600;37,52185021;0,00000000;
19:02:33:061;0,5189;0,1766;0,3589;56,33931600;37,52185021;0,00000000;
19:02:33:062;0,5189;0,1766;0,3589;56,33931600;37,52185021;0,00000000;
19:02:33:063;-0,2974;-0,1901;-1,2723;56,33931600;37,52185021;0,00000000;
19:02:33:122;-0,7602;-0,3417;-0,9191;56,33931600;37,52185021;0,00000000;
19:02:33:123;-0,7602;-0,3417;-0,9191;56,33931600;37,52185021;0,00000000;
19:02:33:124;-0,7602;-0,3417;-0,9191;56,33931600;37,52185021;0,00000000;
19:02:33:146;-0,7602;-0,3417;-0,9191;56,33931600;37,52185021;0,00000000;
19:02:33:202;-0,7602;-0,3417;-0,9191;56,33931600;37,52185021;0,00000000;
19:02:33:205;-0,7602;-0,3417;-0,9191;56,33931600;37,52185021;0,00000000;
19:02:33:206;-1,7901;-0,3038;-0,0956;56,33931600;37,52185021;0,00000000;
19:02:33:262;-1,7901;-0,3038;-0,0956;56,33931600;37,52185021;0,00000000;
19:02:33:263;-1,7901;-0,3038;-0,0956;56,33931600;37,52185021;0,00000000;
19:02:33:264;-2,1550;-0,6545;0,4531;56,33931600;37,52185021;0,00000000;
19:02:33:322;-2,1550;-0,6545;0,4531;56,33931600;37,52185021;0,00000000;
19:02:33:324;-1,6650;-0,4881;0,8234;56,33931600;37,52185021;0,00000000;
19:02:33:325;-1,6650;-0,4881;0,8234;56,33931600;37,52185021;0,00000000;
19:02:33:383;-1,6650;-0,4881;0,8234;56,33931600;37,52185021;0,00000000;
19:02:33:385;-1,6650;-0,4881;0,8234;56,33931600;37,52185021;0,00000000;
19:02:33:386;-1,0476;-0,7628;-0,4313;56,33931600;37,52185021;0,00000000;
19:02:33:462;-1,0476;-0,7628;-0,4313;56,33931600;37,52185021;0,00000000;
19:02:33:463;-1,0476;-0,7628;-0,4313;56,33931600;37,52185021;0,00000000;
19:02:33:465;-0,1360;-0,8050;0,2011;56,33931600;37,52185021;0,00000000;
19:02:33:524;-0,1360;-0,8050;0,2011;56,33931600;37,52185021;0,00000000;
19:02:33:525;-0,1360;-0,8050;0,2011;56,33931600;37,52185021;0,00000000;
19:02:33:526;-0,3879;-0,5661;1,5095;56,33931600;37,52185021;0,00000000;
19:02:33:583;-0,3879;-0,5661;1,5095;56,33931600;37,52185021;0,00000000;
19:02:33:585;-0,3879;-0,5661;1,5095;56,33931600;37,52185021;0,00000000;
19:02:33:587;-0,2486;-0,3220;2,1423;56,33931600;37,52185021;0,00000000;
19:02:33:643;-0,2486;-0,3220;2,1423;56,33931600;37,52185021;0,00000000;
19:02:33:644;-0,2486;-0,3220;2,1423;56,33931600;37,52185021;0,00000000;
19:02:33:646;-0,6760;-0,3877;1,6228;56,33931600;37,52185021;0,00000000;
19:02:33:670;-0,6760;-0,3877;1,6228;56,33931600;37,52185021;0,00000000;
19:02:33:671;-0,7171;-0,4401;1,5917;56,33931600;37,52185021;0,00000000;
19:02:33:726;-0,0877;-0,6019;0,8651;56,33931600;37,52185021;0,00000000;
19:02:33:729;-0,0877;-0,6019;0,8651;56,33931600;37,52185021;0,00000000;
19:02:33:730;-0,0877;-0,6019;0,8651;56,33931600;37,52185021;0,00000000;
19:02:33:784;-0,0877;-0,6019;0,8651;56,33931600;37,52185021;0,00000000;
19:02:33:786;-0,0877;-0,6019;0,8651;56,33931600;37,52185021;0,00000000;
19:02:33:788;-0,4073;-0,9923;0,1995;56,33931600;37,52185021;0,00000000;
19:02:33:844;-0,4073;-0,9923;0,1995;56,33931600;37,52185021;0,00000000;
19:02:33:846;-0,4073;-0,9923;0,1995;56,33931600;37,52185021;0,00000000;
19:02:33:847;0,0236;-0,8476;0,3294;56,33931600;37,52185021;0,00000000;
19:02:33:905;0,0236;-0,8476;0,3294;56,33931600;37,52185021;0,00000000;
19:02:33:907;0,0236;-0,8476;0,3294;56,33931600;37,52185021;0,00000000;
19:02:33:908;-0,3691;-0,9708;0,5094;56,33931600;37,52185021;0,00000000;
19:02:33:931;-0,3691;-0,9708;0,5094;56,33931600;37,52185021;0,00000000;
19:02:33:985;-0,3691;-0,9708;0,5094;56,33931600;37,52185021;0,00000000;
19:02:33:989;-0,3691;-0,9708;0,5094;56,33931600;37,52185021;0,00000000;
19:02:33:991;-0,3017;-1,1835;-0,0851;56,33931600;37,52185021;0,00000000;
19:02:34:045;-0,3017;-1,1835;-0,0851;56,33931600;37,52185021;0,00000000;
19:02:34:047;-0,3017;-1,1835;-0,0851;56,33931600;37,52185021;0,00000000;
19:02:34:048;-0,2704;-1,3820;-0,2803;56,33931600;37,52185021;0,00000000;
19:02:34:106;-0,2704;-1,3820;-0,2803;56,33931600;37,52185021;0,00000000;
19:02:34:107;-0,2704;-1,3820;-0,2803;56,33931600;37,52185021;0,00000000;
19:02:34:108;-0,2778;-1,2826;0,5183;56,33931600;37,52185021;0,00000000;
19:02:34:136;-0,2778;-1,2826;0,5183;56,33931600;37,52185021;0,00000000;
19:02:34:139;-0,3163;-1,2660;0,5086;56,33931600;37,52185021;0,00000000;
19:02:34:141;-0,3163;-1,2660;0,5086;56,33931600;37,52185021;0,00000000;
19:02:34:159;-0,3163;-1,2660;0,5086;56,33931600;37,52185021;0,00000000;
19:02:34:176;-0,3163;-1,2660;0,5086;56,33931600;37,52185021;0,00000000;
19:02:34:194;-0,3163;-1,2660;0,5086;56,33931600;37,52185021;0,00000000;
19:02:34:206;-0,3163;-1,2660;0,5086;56,33931600;37,52185021;0,00000000;
19:02:34:208;-0,3163;-1,2660;0,5086;56,33931600;37,52185021;0,00000000;
19:02:34:209;-0,6105;-1,0962;0,3736;56,33931600;37,52185021;0,00000000;
19:02:34:226;-0,6105;-1,0962;0,3736;56,33931600;37,52185021;0,00000000;
19:02:34:246;-0,6105;-1,0962;0,3736;56,33931600;37,52185021;0,00000000;
19:02:34:266;-0,6105;-1,0962;0,3736;56,33931600;37,52185021;0,00000000;
19:02:34:267;-0,6105;-1,0962;0,3736;56,33931600;37,52185021;0,00000000;
19:02:34:268;-0,2172;-1,2577;0,2187;56,33931600;37,52185021;0,00000000;
19:02:34:286;-0,2172;-1,2577;0,2187;56,33931600;37,52185021;0,00000000;
19:02:34:306;-0,2172;-1,2577;0,2187;56,33931600;37,52185021;0,00000000;
19:02:34:326;-0,2172;-1,2577;0,2187;56,33931600;37,52185021;0,00000000;
19:02:34:327;-0,2172;-1,2577;0,2187;56,33931600;37,52185021;0,00000000;
19:02:34:328;0,0032;-1,1176;0,0313;56,33931600;37,52185021;0,00000000;
19:02:34:346;0,0032;-1,1176;0,0313;56,33931600;37,52185021;0,00000000;
19:02:34:366;0,0032;-1,1176;0,0313;56,33931600;37,52185021;0,00000000;
19:02:34:386;0,0032;-1,1176;0,0313;56,33931600;37,52185021;0,00000000;
19:02:34:388;0,0032;-1,1176;0,0313;56,33931600;37,52185021;0,00000000;
19:02:34:390;0,0182;-1,1131;0,3544;56,33931600;37,52185021;0,00000000;
19:02:34:406;0,0182;-1,1131;0,3544;56,33931600;37,52185021;0,00000000;
19:02:34:427;0,0182;-1,1131;0,3544;56,33931600;37,52185021;0,00000000;
19:02:34:447;0,0182;-1,1131;0,3544;56,33931600;37,52185021;0,00000000;
19:02:34:448;0,0182;-1,1131;0,3544;56,33931600;37,52185021;0,00000000;
19:02:34:449;-0,2994;-1,0256;0,1773;56,33931600;37,52185021;0,00000000;
19:02:34:467;-0,2994;-1,0256;0,1773;56,33931600;37,52185021;0,00000000;
19:02:34:488;-0,2994;-1,0256;0,1773;56,33931600;37,52185021;0,00000000;
19:02:34:508;-0,2994;-1,0256;0,1773;56,33931600;37,52185021;0,00000000;
19:02:34:509;-0,2994;-1,0256;0,1773;56,33931600;37,52185021;0,00000000;
19:02:34:510;-0,3622;-0,8535;-0,1667;56,33931600;37,52185021;0,00000000;
19:02:34:527;-0,3622;-0,8535;-0,1667;56,33931600;37,52185021;0,00000000;
19:02:34:547;-0,3622;-0,8535;-0,1667;56,33931600;37,52185021;0,00000000;
19:02:34:567;-0,3622;-0,8535;-0,1667;56,33931600;37,52185021;0,00000000;
19:02:34:570;-0,3622;-0,8535;-0,1667;56,33931600;37,52185021;0,00000000;
19:02:34:571;-0,2523;-1,0406;0,5260;56,33931600;37,52185021;0,00000000;
19:02:34:590;-0,2523;-1,0406;0,5260;56,33931600;37,52185021;0,00000000;
19:02:34:612;-0,2523;-1,0406;0,5260;56,33931600;37,52185021;0,00000000;
19:02:34:641;-0,2523;-1,0406;0,5260;56,33931600;37,52185021;0,00000000;
19:02:34:643;-0,2523;-1,0406;0,5260;56,35154817;37,51983286;2,41000009;
19:02:34:645;-0,0299;-1,0021;0,6396;56,35154817;37,51983286;2,41000009;
19:02:34:650;-0,0299;-1,0021;0,6396;56,35154817;37,51983286;2,41000009;
19:02:34:668;-0,0299;-1,0021;0,6396;56,35154817;37,51983286;2,41000009;
19:02:34:689;-0,0299;-1,0021;0,6396;56,35154817;37,51983286;2,41000009;
19:02:34:690;-0,0299;-1,0021;0,6396;56,35154817;37,51983286;2,41000009;
19:02:34:691;-0,1668;-0,8308;0,4254;56,35154817;37,51983286;2,41000009;
19:02:34:719;-0,1668;-0,8308;0,4254;56,35154817;37,51983286;2,41000009;
19:02:34:740;-0,1668;-0,8308;0,4254;56,35154817;37,51983286;2,41000009;
19:02:34:742;-0,1668;-0,8308;0,4254;56,35154817;37,51983286;2,41000009;
19:02:34:743;-0,4326;-1,0799;0,4869;56,35154817;37,51983286;2,41000009;
19:02:34:759;-0,4326;-1,0799;0,4869;56,35154817;37,51983286;2,41000009;
19:02:34:779;-0,4326;-1,0799;0,4869;56,35154817;37,51983286;2,41000009;
19:02:34:799;-0,4326;-1,0799;0,4869;56,35154817;37,51983286;2,41000009;
19:02:34:801;-0,4326;-1,0799;0,4869;56,35154817;37,51983286;2,41000009;
19:02:34:802;-0,4220;-0,8923;0,4377;56,35154817;37,51983286;2,41000009;
19:02:34:820;-0,4220;-0,8923;0,4377;56,35154817;37,51983286;2,41000009;
19:02:34:840;-0,4220;-0,8923;0,4377;56,35154817;37,51983286;2,41000009;
19:02:34:859;-0,4220;-0,8923;0,4377;56,35154817;37,51983286;2,41000009;
19:02:34:861;-0,4220;-0,8923;0,4377;56,35154817;37,51983286;2,41000009;
19:02:34:862;-0,0046;-0,9912;0,0841;56,35154817;37,51983286;2,41000009;
19:02:34:880;-0,0046;-0,9912;0,0841;56,35154817;37,51983286;2,41000009;
19:02:34:899;-0,0046;-0,9912;0,0841;56,35154817;37,51983286;2,41000009;
19:02:34:920;-0,0046;-0,9912;0,0841;56,35154817;37,51983286;2,41000009;
19:02:34:922;-0,0046;-0,9912;0,0841;56,35154817;37,51983286;2,41000009;
19:02:34:924;-0,0280;-0,8239;-0,1394;56,35154817;37,51983286;2,41000009;
19:02:34:940;-0,0280;-0,8239;-0,1394;56,35154817;37,51983286;2,41000009;
19:02:34:960;-0,0280;-0,8239;-0,1394;56,35154817;37,51983286;2,41000009;
19:02:34:980;-0,0280;-0,8239;-0,1394;56,35154817;37,51983286;2,41000009;
19:02:34:981;-0,0280;-0,8239;-0,1394;56,35154817;37,51983286;2,41000009;
19:02:34:983;-0,3738;-0,5439;0,1486;56,35154817;37,51983286;2,41000009;
19:02:35:000;-0,3738;-0,5439;0,1486;56,35154817;37,51983286;2,41000009;
19:02:35:020;-0,3738;-0,5439;0,1486;56,35154817;37,51983286;2,41000009;
19:02:35:043;-0,3738;-0,5439;0,1486;56,35154817;37,51983286;2,41000009;
19:02:35:045;-0,3738;-0,5439;0,1486;56,35154817;37,51983286;2,41000009;
19:02:35:047;0,0103;-0,1749;0,3227;56,35154817;37,51983286;2,41000009;
19:02:35:060;0,0103;-0,1749;0,3227;56,35154817;37,51983286;2,41000009;
19:02:35:080;0,0103;-0,1749;0,3227;56,35154817;37,51983286;2,41000009;
19:02:35:096;0,0103;-0,1749;0,3227;56,35154817;37,51983286;2,41000009;
19:02:35:110;0,0103;-0,1749;0,3227;56,35154817;37,51983286;2,41000009;
19:02:35:112;-0,0414;-0,0525;0,3446;56,35154817;37,51983286;2,41000009;
19:02:35:114;-0,0414;-0,0525;0,3446;56,35154817;37,51983286;2,41000009;
19:02:35:131;-0,0414;-0,0525;0,3446;56,35154817;37,51983286;2,41000009;
19:02:35:152;-0,0414;-0,0525;0,3446;56,35154817;37,51983286;2,41000009;
19:02:35:172;-0,0414;-0,0525;0,3446;56,35154817;37,51983286;2,41000009;
19:02:35:174;-0,1585;0,0332;0,0863;56,35154817;37,51983286;2,41000009;
19:02:35:175;-0,1585;0,0332;0,0863;56,35154817;37,51983286;2,41000009;
19:02:35:194;-0,1585;0,0332;0,0863;56,35154817;37,51983286;2,41000009;
19:02:35:211;-0,1585;0,0332;0,0863;56,35154817;37,51983286;2,41000009;
19:02:35:231;-0,1585;0,0332;0,0863;56,35154817;37,51983286;2,41000009;
19:02:35:233;-0,1585;0,0332;0,0863;56,35154817;37,51983286;2,41000009;
19:02:35:235;-0,1978;0,1252;0,1256;56,35154817;37,51983286;2,41000009;
19:02:35:251;-0,1978;0,1252;0,1256;56,35154817;37,51983286;2,41000009;
19:02:35:271;-0,1978;0,1252;0,1256;56,35154817;37,51983286;2,41000009;
19:02:35:292;-0,1978;0,1252;0,1256;56,35154817;37,51983286;2,41000009;
19:02:35:294;-0,1978;0,1252;0,1256;56,35154817;37,51983286;2,41000009;
19:02:35:296;0,1213;-0,0848;-0,1139;56,35154817;37,51983286;2,41000009;
19:02:35:312;0,1213;-0,0848;-0,1139;56,35154817;37,51983286;2,41000009;
19:02:35:334;0,1213;-0,0848;-0,1139;56,35154817;37,51983286;2,41000009;
19:02:35:352;0,1213;-0,0848;-0,1139;56,35154817;37,51983286;2,41000009;
19:02:35:353;0,1213;-0,0848;-0,1139;56,35154817;37,51983286;2,41000009;
19:02:35:356;-0,2263;-0,0472;0,1197;56,35154817;37,51983286;2,41000009;
19:02:35:373;-0,2263;-0,0472;0,1197;56,35154817;37,51983286;2,41000009;
19:02:35:392;-0,2263;-0,0472;0,1197;56,35154817;37,51983286;2,41000009;
19:02:35:412;-0,2263;-0,0472;0,1197;56,35154817;37,51983286;2,41000009;
19:02:35:413;-0,2263;-0,0472;0,1197;56,35154817;37,51983286;2,41000009;
19:02:35:414;-0,2628;0,0668;0,3776;56,35154817;37,51983286;2,41000009;
19:02:35:432;-0,2628;0,0668;0,3776;56,35154817;37,51983286;2,41000009;
19:02:35:453;-0,2628;0,0668;0,3776;56,35154817;37,51983286;2,41000009;
19:02:35:473;-0,2628;0,0668;0,3776;56,35154817;37,51983286;2,41000009;
19:02:35:477;-0,3084;-0,0991;0,3355;56,35154817;37,51983286;2,41000009;
19:02:35:479;-0,3084;-0,0991;0,3355;56,35154817;37,51983286;2,41000009;
19:02:35:493;-0,3084;-0,0991;0,3355;56,35154817;37,51983286;2,41000009;
19:02:35:515;-0,3084;-0,0991;0,3355;56,35154817;37,51983286;2,41000009;
19:02:35:534;-0,3084;-0,0991;0,3355;56,35154817;37,51983286;2,41000009;
19:02:35:535;-0,3084;-0,0991;0,3355;56,35154817;37,51983286;2,41000009;
19:02:35:537;-0,7978;0,1775;0,6934;56,35154817;37,51983286;2,41000009;
19:02:35:553;-0,7978;0,1775;0,6934;56,35154817;37,51983286;2,41000009;
19:02:35:573;-0,7978;0,1775;0,6934;56,35154817;37,51983286;2,41000009;
19:02:35:593;-0,7978;0,1775;0,6934;56,35154817;37,51983286;2,41000009;
19:02:35:594;-0,7978;0,1775;0,6934;56,35154817;37,51983286;2,41000009;
19:02:35:596;-1,1580;0,3936;0,6352;56,35154817;37,51983286;2,41000009;
19:02:35:626;-1,1580;0,3936;0,6352;56,35154817;37,51983286;2,41000009;
19:02:35:644;-1,1580;0,3936;0,6352;56,35157019;37,51998523;1,62000000;
19:02:35:648;-1,1580;0,3936;0,6352;56,35157019;37,51998523;1,62000000;
19:02:35:649;-0,0589;0,1314;0,0022;56,35157019;37,51998523;1,62000000;
19:02:35:663;-0,0589;0,1314;0,0022;56,35157019;37,51998523;1,62000000;
19:02:35:683;-0,0589;0,1314;0,0022;56,35157019;37,51998523;1,62000000;
19:02:35:704;-0,0589;0,1314;0,0022;56,35157019;37,51998523;1,62000000;
19:02:35:705;-0,0589;0,1314;0,0022;56,35157019;37,51998523;1,62000000;
19:02:35:706;0,7236;-0,0591;-2,7660;56,35157019;37,51998523;1,62000000;
19:02:35:724;0,7236;-0,0591;-2,7660;56,35157019;37,51998523;1,62000000;
19:02:35:744;0,7236;-0,0591;-2,7660;56,35157019;37,51998523;1,62000000;
19:02:35:764;0,7236;-0,0591;-2,7660;56,35157019;37,51998523;1,62000000;
19:02:35:765;0,7236;-0,0591;-2,7660;56,35157019;37,51998523;1,62000000;
19:02:35:767;0,6322;0,4915;-1,9143;56,35157019;37,51998523;1,62000000;
19:02:35:784;0,6322;0,4915;-1,9143;56,35157019;37,51998523;1,62000000;
19:02:35:805;0,6322;0,4915;-1,9143;56,35157019;37,51998523;1,62000000;
19:02:35:826;1,0788;0,8515;-1,3442;56,35157019;37,51998523;1,62000000;
19:02:35:828;1,0788;0,8515;-1,3442;56,35157019;37,51998523;1,62000000;
19:02:35:829;1,0788;0,8515;-1,3442;56,35157019;37,51998523;1,62000000;
19:02:35:844;1,0788;0,8515;-1,3442;56,35157019;37,51998523;1,62000000;
19:02:35:864;1,0788;0,8515;-1,3442;56,35157019;37,51998523;1,62000000;
19:02:35:885;1,0788;0,8515;-1,3442;56,35157019;37,51998523;1,62000000;
19:02:35:888;1,0788;0,8515;-1,3442;56,35157019;37,51998523;1,62000000;
19:02:35:891;-1,1021;1,8970;-0,7527;56,35157019;37,51998523;1,62000000;
19:02:35:905;-1,1021;1,8970;-0,7527;56,35157019;37,51998523;1,62000000;
19:02:35:926;-1,1021;1,8970;-0,7527;56,35157019;37,51998523;1,62000000;
19:02:35:945;-1,1021;1,8970;-0,7527;56,35157019;37,51998523;1,62000000;
19:02:35:946;-1,1021;1,8970;-0,7527;56,35157019;37,51998523;1,62000000;
19:02:35:947;-0,9352;1,3215;-0,6682;56,35157019;37,51998523;1,62000000;
19:02:35:965;-0,9352;1,3215;-0,6682;56,35157019;37,51998523;1,62000000;
19:02:35:985;-0,9352;1,3215;-0,6682;56,35157019;37,51998523;1,62000000;
19:02:36:006;-0,9352;1,3215;-0,6682;56,35157019;37,51998523;1,62000000;
19:02:36:009;-0,9352;1,3215;-0,6682;56,35157019;37,51998523;1,62000000;
19:02:36:010;-0,7690;1,0726;-0,3267;56,35157019;37,51998523;1,62000000;
19:02:36:025;-0,7690;1,0726;-0,3267;56,35157019;37,51998523;1,62000000;
19:02:36:045;-0,7690;1,0726;-0,3267;56,35157019;37,51998523;1,62000000;
19:02:36:065;-0,7690;1,0726;-0,3267;56,35157019;37,51998523;1,62000000;
19:02:36:067;-0,7690;1,0726;-0,3267;56,35157019;37,51998523;1,62000000;
19:02:36:068;0,2742;1,3890;2,1191;56,35157019;37,51998523;1,62000000;
19:02:36:085;0,2742;1,3890;2,1191;56,35157019;37,51998523;1,62000000;
19:02:36:106;0,2742;1,3890;2,1191;56,35157019;37,51998523;1,62000000;
19:02:36:119;0,2742;1,3890;2,1191;56,35157019;37,51998523;1,62000000;
19:02:36:136;0,2742;1,3890;2,1191;56,35157019;37,51998523;1,62000000;
19:02:36:138;0,2742;1,3890;2,1191;56,35157019;37,51998523;1,62000000;
19:02:36:140;-0,0353;0,1496;1,3876;56,35157019;37,51998523;1,62000000;
19:02:36:156;-0,0353;0,1496;1,3876;56,35157019;37,51998523;1,62000000;
19:02:36:177;-0,0353;0,1496;1,3876;56,35157019;37,51998523;1,62000000;
19:02:36:196;-0,0353;0,1496;1,3876;56,35157019;37,51998523;1,62000000;
19:02:36:198;-0,0353;0,1496;1,3876;56,35157019;37,51998523;1,62000000;
19:02:36:199;1,9119;0,6058;0,7573;56,35157019;37,51998523;1,62000000;
19:02:36:217;1,9119;0,6058;0,7573;56,35157019;37,51998523;1,62000000;
19:02:36:236;1,9119;0,6058;0,7573;56,35157019;37,51998523;1,62000000;
19:02:36:258;-2,1883;-1,0839;-1,0883;56,35157019;37,51998523;1,62000000;
19:02:36:261;-2,1883;-1,0839;-1,0883;56,35157019;37,51998523;1,62000000;
19:02:36:262;-2,1883;-1,0839;-1,0883;56,35157019;37,51998523;1,62000000;
19:02:36:277;-2,1883;-1,0839;-1,0883;56,35157019;37,51998523;1,62000000;
19:02:36:297;-2,1883;-1,0839;-1,0883;56,35157019;37,51998523;1,62000000;
19:02:36:317;-2,1883;-1,0839;-1,0883;56,35157019;37,51998523;1,62000000;
19:02:36:318;-2,1883;-1,0839;-1,0883;56,35157019;37,51998523;1,62000000;
19:02:36:320;-0,3959;0,2529;-0,1981;56,35157019;37,51998523;1,62000000;
19:02:36:339;-0,3959;0,2529;-0,1981;56,35157019;37,51998523;1,62000000;
19:02:36:359;-0,3959;0,2529;-0,1981;56,35157019;37,51998523;1,62000000;
19:02:36:377;-0,3959;0,2529;-0,1981;56,35157019;37,51998523;1,62000000;
19:02:36:379;-0,3959;0,2529;-0,1981;56,35157019;37,51998523;1,62000000;
19:02:36:380;1,6038;1,0001;1,5552;56,35157019;37,51998523;1,62000000;
19:02:36:397;1,6038;1,0001;1,5552;56,35157019;37,51998523;1,62000000;
19:02:36:417;1,6038;1,0001;1,5552;56,35157019;37,51998523;1,62000000;
19:02:36:437;1,6038;1,0001;1,5552;56,35157019;37,51998523;1,62000000;
19:02:36:440;1,6038;1,0001;1,5552;56,35157019;37,51998523;1,62000000;
19:02:36:441;-1,6045;0,2538;0,9396;56,35157019;37,51998523;1,62000000;
19:02:36:458;-1,6045;0,2538;0,9396;56,35157019;37,51998523;1,62000000;
19:02:36:477;-1,6045;0,2538;0,9396;56,35157019;37,51998523;1,62000000;
19:02:36:498;-1,6045;0,2538;0,9396;56,35157019;37,51998523;1,62000000;
19:02:36:500;0,3461;0,7928;-0,1856;56,35157019;37,51998523;1,62000000;
19:02:36:502;0,3461;0,7928;-0,1856;56,35157019;37,51998523;1,62000000;
19:02:36:518;0,3461;0,7928;-0,1856;56,35157019;37,51998523;1,62000000;
19:02:36:539;0,3461;0,7928;-0,1856;56,35157019;37,51998523;1,62000000;
19:02:36:558;0,3461;0,7928;-0,1856;56,35157019;37,51998523;1,62000000;
19:02:36:559;0,3461;0,7928;-0,1856;56,35157019;37,51998523;1,62000000;
19:02:36:560;2,6492;0,1566;-0,5452;56,35157019;37,51998523;1,62000000;
19:02:36:579;2,6492;0,1566;-0,5452;56,35157019;37,51998523;1,62000000;
19:02:36:605;2,6492;0,1566;-0,5452;56,35157019;37,51998523;1,62000000;
19:02:36:618;-1,2937;0,2555;-0,6986;56,35162356;37,52002225;0,25000000;
19:02:36:623;-1,2937;0,2555;-0,6986;56,35162356;37,52002225;0,25000000;
19:02:36:624;-1,2937;0,2555;-0,6986;56,35162356;37,52002225;0,25000000;
19:02:36:649;-1,2937;0,2555;-0,6986;56,35162356;37,52002225;0,25000000;
19:02:36:668;-1,2937;0,2555;-0,6986;56,35162356;37,52002225;0,25000000;
19:02:36:669;-1,2937;0,2555;-0,6986;56,35162356;37,52002225;0,25000000;
19:02:36:670;1,0688;0,1683;-0,6771;56,35162356;37,52002225;0,25000000;
19:02:36:690;1,0688;0,1683;-0,6771;56,35162356;37,52002225;0,25000000;
19:02:36:709;1,0688;0,1683;-0,6771;56,35162356;37,52002225;0,25000000;
19:02:36:729;1,0688;0,1683;-0,6771;56,35162356;37,52002225;0,25000000;
19:02:36:731;1,0688;0,1683;-0,6771;56,35162356;37,52002225;0,25000000;
19:02:36:732;-0,4140;-0,4326;0,9592;56,35162356;37,52002225;0,25000000;
19:02:36:749;-0,4140;-0,4326;0,9592;56,35162356;37,52002225;0,25000000;
19:02:36:769;-0,4140;-0,4326;0,9592;56,35162356;37,52002225;0,25000000;
19:02:36:790;-0,4140;-0,4326;0,9592;56,35162356;37,52002225;0,25000000;
19:02:36:793;-0,4140;-0,4326;0,9592;56,35162356;37,52002225;0,25000000;
19:02:36:794;-1,6319;-0,1634;-0,3078;56,35162356;37,52002225;0,25000000;
19:02:36:809;-1,6319;-0,1634;-0,3078;56,35162356;37,52002225;0,25000000;
19:02:36:830;-1,6319;-0,1634;-0,3078;56,35162356;37,52002225;0,25000000;
19:02:36:849;-1,6319;-0,1634;-0,3078;56,35162356;37,52002225;0,25000000;
19:02:36:851;-1,6319;-0,1634;-0,3078;56,35162356;37,52002225;0,25000000;
19:02:36:852;-1,1070;-0,1464;0,3388;56,35162356;37,52002225;0,25000000;
19:02:36:870;-1,1070;-0,1464;0,3388;56,35162356;37,52002225;0,25000000;
19:02:36:892;-1,1070;-0,1464;0,3388;56,35162356;37,52002225;0,25000000;
19:02:36:911;-1,1070;-0,1464;0,3388;56,35162356;37,52002225;0,25000000;
19:02:36:912;-0,2937;0,3434;-0,0427;56,35162356;37,52002225;0,25000000;
19:02:36:913;-0,2937;0,3434;-0,0427;56,35162356;37,52002225;0,25000000;
19:02:36:930;-0,2937;0,3434;-0,0427;56,35162356;37,52002225;0,25000000;
19:02:36:950;-0,2937;0,3434;-0,0427;56,35162356;37,52002225;0,25000000;
19:02:36:971;-0,2937;0,3434;-0,0427;56,35162356;37,52002225;0,25000000;
19:02:36:973;-0,2937;0,3434;-0,0427;56,35162356;37,52002225;0,25000000;
19:02:36:974;0,6035;0,5609;1,1255;56,35162356;37,52002225;0,25000000;
19:02:36:993;0,6035;0,5609;1,1255;56,35162356;37,52002225;0,25000000;
19:02:37:012;0,6035;0,5609;1,1255;56,35162356;37,52002225;0,25000000;
19:02:37:030;0,6035;0,5609;1,1255;56,35162356;37,52002225;0,25000000;
19:02:37:032;0,6035;0,5609;1,1255;56,35162356;37,52002225;0,25000000;
19:02:37:033;-1,5677;0,0659;-0,1605;56,35162356;37,52002225;0,25000000;
19:02:37:051;-1,5677;0,0659;-0,1605;56,35162356;37,52002225;0,25000000;
19:02:37:072;-1,5677;0,0659;-0,1605;56,35162356;37,52002225;0,25000000;
19:02:37:091;-1,5677;0,0659;-0,1605;56,35162356;37,52002225;0,25000000;
19:02:37:093;-1,5677;0,0659;-0,1605;56,35162356;37,52002225;0,25000000;
19:02:37:095;1,8026;0,0516;-0,0379;56,35162356;37,52002225;0,25000000;
19:02:37:111;1,8026;0,0516;-0,0379;56,35162356;37,52002225;0,25000000;
19:02:37:133;1,8026;0,0516;-0,0379;56,35162356;37,52002225;0,25000000;
19:02:37:153;1,8026;0,0516;-0,0379;56,35162356;37,52002225;0,25000000;
19:02:37:156;-0,2618;0,5636;0,9906;56,35162356;37,52002225;0,25000000;
19:02:37:158;-0,2618;0,5636;0,9906;56,35162356;37,52002225;0,25000000;
19:02:37:171;-0,2618;0,5636;0,9906;56,35162356;37,52002225;0,25000000;
19:02:37:191;-0,2618;0,5636;0,9906;56,35162356;37,52002225;0,25000000;
19:02:37:211;-0,2618;0,5636;0,9906;56,35162356;37,52002225;0,25000000;
19:02:37:213;-0,2618;0,5636;0,9906;56,35162356;37,52002225;0,25000000;
19:02:37:214;-0,0517;0,4281;-0,0526;56,35162356;37,52002225;0,25000000;
19:02:37:231;-0,0517;0,4281;-0,0526;56,35162356;37,52002225;0,25000000;
19:02:37:251;-0,0517;0,4281;-0,0526;56,35162356;37,52002225;0,25000000;
19:02:37:274;-0,1111;0,4197;-0,0954;56,35162356;37,52002225;0,25000000;
19:02:37:276;-0,1111;0,4197;-0,0954;56,35162356;37,52002225;0,25000000;
19:02:37:277;-0,1111;0,4197;-0,0954;56,35162356;37,52002225;0,25000000;
19:02:37:294;-0,1111;0,4197;-0,0954;56,35162356;37,52002225;0,25000000;
19:02:37:312;-0,1111;0,4197;-0,0954;56,35162356;37,52002225;0,25000000;
19:02:37:332;-0,1111;0,4197;-0,0954;56,35162356;37,52002225;0,25000000;
19:02:37:334;-0,1111;0,4197;-0,0954;56,35162356;37,52002225;0,25000000;
19:02:37:335;-0,0993;0,3755;0,0401;56,35162356;37,52002225;0,25000000;
19:02:37:352;-0,0993;0,3755;0,0401;56,35162356;37,52002225;0,25000000;
19:02:37:372;-0,0993;0,3755;0,0401;56,35162356;37,52002225;0,25000000;
19:02:37:393;-0,0993;0,3755;0,0401;56,35162356;37,52002225;0,25000000;
19:02:37:396;-0,0993;0,3755;0,0401;56,35162356;37,52002225;0,25000000;
19:02:37:397;-0,0777;0,3496;0,0881;56,35162356;37,52002225;0,25000000;
19:02:37:412;-0,0777;0,3496;0,0881;56,35162356;37,52002225;0,25000000;
19:02:37:433;-0,0777;0,3496;0,0881;56,35162356;37,52002225;0,25000000;
19:02:37:453;-0,0777;0,3496;0,0881;56,35162356;37,52002225;0,25000000;
19:02:37:455;-0,0777;0,3496;0,0881;56,35162356;37,52002225;0,25000000;
19:02:37:457;-0,0582;0,3089;0,0361;56,35162356;37,52002225;0,25000000;
19:02:37:475;-0,0582;0,3089;0,0361;56,35162356;37,52002225;0,25000000;
19:02:37:496;-0,0582;0,3089;0,0361;56,35162356;37,52002225;0,25000000;
19:02:37:515;-0,0582;0,3089;0,0361;56,35162356;37,52002225;0,25000000;
19:02:37:518;-0,0582;0,3089;0,0361;56,35162356;37,52002225;0,25000000;
19:02:37:520;-0,0697;0,2853;0,0122;56,35162356;37,52002225;0,25000000;
19:02:37:530;-0,0697;0,2853;0,0122;56,35162356;37,52002225;0,25000000;
19:02:37:605;-0,0697;0,2853;0,0122;56,35162356;37,52002225;0,25000000;
19:02:37:607;-0,0697;0,2853;0,0122;56,35155611;37,52013896;0,00000000;
19:02:37:615;-0,0497;0,3657;0,0332;56,35155611;37,52013896;0,00000000;
19:02:37:635;-0,0497;0,3657;0,0332;56,35155611;37,52013896;0,00000000;
19:02:37:639;-0,0439;0,3240;0,0295;56,35155611;37,52013896;0,00000000;
19:02:37:642;-0,0439;0,3240;0,0295;56,35155611;37,52013896;0,00000000;
19:02:37:654;-0,0439;0,3240;0,0295;56,35155611;37,52013896;0,00000000;
19:02:37:674;-0,0439;0,3240;0,0295;56,35155611;37,52013896;0,00000000;
19:02:37:695;-0,0439;0,3240;0,0295;56,35155611;37,52013896;0,00000000;
19:02:37:696;-0,0439;0,3240;0,0295;56,35155611;37,52013896;0,00000000;
19:02:37:697;-0,0642;0,4082;-0,0207;56,35155611;37,52013896;0,00000000;
19:02:37:714;-0,0642;0,4082;-0,0207;56,35155611;37,52013896;0,00000000;
19:02:37:735;-0,0642;0,4082;-0,0207;56,35155611;37,52013896;0,00000000;
19:02:37:755;-0,0642;0,4082;-0,0207;56,35155611;37,52013896;0,00000000;
19:02:37:757;-0,0642;0,4082;-0,0207;56,35155611;37,52013896;0,00000000;
19:02:37:758;-0,0638;0,4639;0,0303;56,35155611;37,52013896;0,00000000;
19:02:37:779;-0,0638;0,4639;0,0303;56,35155611;37,52013896;0,00000000;
19:02:37:793;-0,0638;0,4639;0,0303;56,35155611;37,52013896;0,00000000;
19:02:37:809;-0,0638;0,4639;0,0303;56,35155611;37,52013896;0,00000000;
19:02:37:828;-0,0502;0,3907;0,0145;56,35155611;37,52013896;0,00000000;
19:02:37:833;-0,0502;0,3907;0,0145;56,35155611;37,52013896;0,00000000;
19:02:37:834;-0,0502;0,3907;0,0145;56,35155611;37,52013896;0,00000000;
19:02:37:846;-0,0502;0,3907;0,0145;56,35155611;37,52013896;0,00000000;
19:02:37:865;-0,0502;0,3907;0,0145;56,35155611;37,52013896;0,00000000;
19:02:37:886;-0,0502;0,3907;0,0145;56,35155611;37,52013896;0,00000000;
19:02:37:889;-0,0502;0,3907;0,0145;56,35155611;37,52013896;0,00000000;
19:02:37:892;-0,0536;0,4144;0,0065;56,35155611;37,52013896;0,00000000;
19:02:37:908;-0,0536;0,4144;0,0065;56,35155611;37,52013896;0,00000000;
19:02:37:928;-0,0536;0,4144;0,0065;56,35155611;37,52013896;0,00000000;
19:02:37:947;-0,0536;0,4144;0,0065;56,35155611;37,52013896;0,00000000;
19:02:37:949;-0,0536;0,4144;0,0065;56,35155611;37,52013896;0,00000000;
19:02:37:950;-0,0517;0,3938;0,0331;56,35155611;37,52013896;0,00000000;
19:02:37:966;-0,0517;0,3938;0,0331;56,35155611;37,52013896;0,00000000;
19:02:37:986;-0,0517;0,3938;0,0331;56,35155611;37,52013896;0,00000000;
19:02:38:007;-0,0517;0,3938;0,0331;56,35155611;37,52013896;0,00000000;
19:02:38:009;-0,0517;0,3938;0,0331;56,35155611;37,52013896;0,00000000;
19:02:38:011;-0,0281;0,2855;0,0180;56,35155611;37,52013896;0,00000000;
19:02:38:029;-0,0281;0,2855;0,0180;56,35155611;37,52013896;0,00000000;
19:02:38:048;-0,0281;0,2855;0,0180;56,35155611;37,52013896;0,00000000;
19:02:38:068;-0,0281;0,2855;0,0180;56,35155611;37,52013896;0,00000000;
19:02:38:071;-0,0281;0,2855;0,0180;56,35155611;37,52013896;0,00000000;
19:02:38:074;-0,0263;0,2953;-0,0308;56,35155611;37,52013896;0,00000000;
19:02:38:088;-0,0263;0,2953;-0,0308;56,35155611;37,52013896;0,00000000;
19:02:38:112;-0,0263;0,2953;-0,0308;56,35155611;37,52013896;0,00000000;
19:02:38:128;-0,0263;0,2953;-0,0308;56,35155611;37,52013896;0,00000000;
19:02:38:131;-0,0263;0,2953;-0,0308;56,35155611;37,52013896;0,00000000;
19:02:38:132;-0,0412;0,2665;0,0464;56,35155611;37,52013896;0,00000000;
19:02:38:147;-0,0412;0,2665;0,0464;56,35155611;37,52013896;0,00000000;
19:02:38:167;-0,0412;0,2665;0,0464;56,35155611;37,52013896;0,00000000;
19:02:38:188;-0,0412;0,2665;0,0464;56,35155611;37,52013896;0,00000000;
19:02:38:191;-0,0412;0,2665;0,0464;56,35155611;37,52013896;0,00000000;
19:02:38:193;-0,0299;0,2419;0,0168;56,35155611;37,52013896;0,00000000;
19:02:38:209;-0,0299;0,2419;0,0168;56,35155611;37,52013896;0,00000000;
19:02:38:228;-0,0299;0,2419;0,0168;56,35155611;37,52013896;0,00000000;
19:02:38:248;-0,0299;0,2419;0,0168;56,35155611;37,52013896;0,00000000;
19:02:38:250;-0,0299;0,2419;0,0168;56,35155611;37,52013896;0,00000000;
19:02:38:252;-0,0476;0,2578;-0,0191;56,35155611;37,52013896;0,00000000;
19:02:38:268;-0,0476;0,2578;-0,0191;56,35155611;37,52013896;0,00000000;
19:02:38:288;-0,0476;0,2578;-0,0191;56,35155611;37,52013896;0,00000000;
19:02:38:313;-0,0193;0,2026;0,0394;56,35155611;37,52013896;0,00000000;
19:02:38:315;-0,0193;0,2026;0,0394;56,35155611;37,52013896;0,00000000;
19:02:38:318;-0,0193;0,2026;0,0394;56,35155611;37,52013896;0,00000000;
19:02:38:339;-0,0193;0,2026;0,0394;56,35155611;37,52013896;0,00000000;
19:02:38:359;-0,0193;0,2026;0,0394;56,35155611;37,52013896;0,00000000;
19:02:38:362;-0,0193;0,2026;0,0394;56,35155611;37,52013896;0,00000000;
19:02:38:364;-0,0356;0,2064;-0,0501;56,35155611;37,52013896;0,00000000;
19:02:38:382;-0,0356;0,2064;-0,0501;56,35155611;37,52013896;0,00000000;
19:02:38:399;-0,0356;0,2064;-0,0501;56,35155611;37,52013896;0,00000000;
19:02:38:418;-0,0356;0,2064;-0,0501;56,35155611;37,52013896;0,00000000;
19:02:38:422;0,0013;0,2342;0,0679;56,35155611;37,52013896;0,00000000;
19:02:38:425;0,0013;0,2342;0,0679;56,35155611;37,52013896;0,00000000;
19:02:38:440;0,0013;0,2342;0,0679;56,35155611;37,52013896;0,00000000;
19:02:38:458;0,0013;0,2342;0,0679;56,35155611;37,52013896;0,00000000;
19:02:38:479;0,0013;0,2342;0,0679;56,35155611;37,52013896;0,00000000;
19:02:38:482;0,0013;0,2342;0,0679;56,35155611;37,52013896;0,00000000;
19:02:38:483;-0,0080;0,1833;-0,0276;56,35155611;37,52013896;0,00000000;
19:02:38:500;-0,0080;0,1833;-0,0276;56,35155611;37,52013896;0,00000000;
19:02:38:519;-0,0080;0,1833;-0,0276;56,35155611;37,52013896;0,00000000;
19:02:38:541;-0,0080;0,1833;-0,0276;56,35155611;37,52013896;0,00000000;
19:02:38:543;-0,0080;0,1833;-0,0276;56,35155611;37,52013896;0,00000000;
19:02:38:545;-0,0004;0,1881;0,0188;56,35155611;37,52013896;0,00000000;
19:02:38:562;-0,0004;0,1881;0,0188;56,35155611;37,52013896;0,00000000;
19:02:38:580;-0,0004;0,1881;0,0188;56,35155611;37,52013896;0,00000000;
19:02:38:599;-0,0004;0,1881;0,0188;56,35155611;37,52013896;0,00000000;
19:02:38:601;-0,0004;0,1881;0,0188;56,35155611;37,52013896;0,00000000;
19:02:38:602;-0,0375;0,1506;-0,0202;56,35155611;37,52013896;0,00000000;
19:02:38:628;-0,0375;0,1506;-0,0202;56,35155611;37,52013896;0,00000000;
19:02:38:641;-0,0375;0,1506;-0,0202;56,35147452;37,52014528;0,00000000;
19:02:38:660;-0,0375;0,1506;-0,0202;56,35147452;37,52014528;0,00000000;
19:02:38:662;-0,0375;0,1506;-0,0202;56,35147452;37,52014528;0,00000000;
19:02:38:663;-0,0121;0,1553;0,0161;56,35147452;37,52014528;0,00000000;
19:02:38:679;-0,0121;0,1553;0,0161;56,35147452;37,52014528;0,00000000;
19:02:38:699;-0,0121;0,1553;0,0161;56,35147452;37,52014528;0,00000000;
19:02:38:720;-0,0121;0,1553;0,0161;56,35147452;37,52014528;0,00000000;
19:02:38:724;-0,0121;0,1553;0,0161;56,35147452;37,52014528;0,00000000;
19:02:38:725;-0,0105;0,1417;-0,0034;56,35147452;37,52014528;0,00000000;
19:02:38:740;-0,0105;0,1417;-0,0034;56,35147452;37,52014528;0,00000000;
19:02:38:763;-0,0105;0,1417;-0,0034;56,35147452;37,52014528;0,00000000;
19:02:38:783;-0,0105;0,1417;-0,0034;56,35147452;37,52014528;0,00000000;
19:02:38:785;-0,0105;0,1417;-0,0034;56,35147452;37,52014528;0,00000000;
19:02:38:786;-0,0123;0,1355;0,0012;56,35147452;37,52014528;0,00000000;
19:02:38:800;-0,0123;0,1355;0,0012;56,35147452;37,52014528;0,00000000;
19:02:38:821;-0,0123;0,1355;0,0012;56,35147452;37,52014528;0,00000000;
19:02:38:840;-0,0123;0,1355;0,0012;56,35147452;37,52014528;0,00000000;
19:02:38:842;-0,0123;0,1355;0,0012;56,35147452;37,52014528;0,00000000;
19:02:38:843;0,0213;0,1867;0,0412;56,35147452;37,52014528;0,00000000;
19:02:38:861;0,0213;0,1867;0,0412;56,35147452;37,52014528;0,00000000;
19:02:38:881;0,0213;0,1867;0,0412;56,35147452;37,52014528;0,00000000;
19:02:38:901;0,0213;0,1867;0,0412;56,35147452;37,52014528;0,00000000;
19:02:38:903;0,0213;0,1867;0,0412;56,35147452;37,52014528;0,00000000;
19:02:38:904;-0,0361;0,2470;-0,0233;56,35147452;37,52014528;0,00000000;
19:02:38:921;-0,0361;0,2470;-0,0233;56,35147452;37,52014528;0,00000000;
19:02:38:942;-0,0361;0,2470;-0,0233;56,35147452;37,52014528;0,00000000;
19:02:38:964;-0,0186;0,2429;-0,0146;56,35147452;37,52014528;0,00000000;
19:02:38:966;-0,0186;0,2429;-0,0146;56,35147452;37,52014528;0,00000000;
19:02:38:967;-0,0186;0,2429;-0,0146;56,35147452;37,52014528;0,00000000;
19:02:38:982;-0,0186;0,2429;-0,0146;56,35147452;37,52014528;0,00000000;
19:02:39:002;-0,0186;0,2429;-0,0146;56,35147452;37,52014528;0,00000000;
19:02:39:023;-0,0186;0,2429;-0,0146;56,35147452;37,52014528;0,00000000;
19:02:39:027;-0,0186;0,2429;-0,0146;56,35147452;37,52014528;0,00000000;
19:02:39:029;-0,0223;0,2516;0,0106;56,35147452;37,52014528;0,00000000;
19:02:39:043;-0,0223;0,2516;0,0106;56,35147452;37,52014528;0,00000000;
19:02:39:062;-0,0223;0,2516;0,0106;56,35147452;37,52014528;0,00000000;
19:02:39:082;-0,0223;0,2516;0,0106;56,35147452;37,52014528;0,00000000;
19:02:39:093;-0,0223;0,2516;0,0106;56,35147452;37,52014528;0,00000000;
19:02:39:094;-0,0223;0,2516;0,0106;56,35147452;37,52014528;0,00000000;
19:02:39:096;-0,0338;0,2876;-0,0320;56,35147452;37,52014528;0,00000000;
19:02:39:113;-0,0338;0,2876;-0,0320;56,35147452;37,52014528;0,00000000;
19:02:39:132;-0,0338;0,2876;-0,0320;56,35147452;37,52014528;0,00000000;
19:02:39:152;-0,0338;0,2876;-0,0320;56,35147452;37,52014528;0,00000000;
19:02:39:155;-0,0338;0,2876;-0,0320;56,35147452;37,52014528;0,00000000;
19:02:39:157;-0,0198;0,3130;-0,0081;56,35147452;37,52014528;0,00000000;
19:02:39:175;-0,0198;0,3130;-0,0081;56,35147452;37,52014528;0,00000000;
19:02:39:194;-0,0198;0,3130;-0,0081;56,35147452;37,52014528;0,00000000;
19:02:39:214;-0,0198;0,3130;-0,0081;56,35147452;37,52014528;0,00000000;
19:02:39:221;-0,0198;0,3130;-0,0081;56,35147452;37,52014528;0,00000000;
19:02:39:224;-0,0135;0,3006;-0,0132;56,35147452;37,52014528;0,00000000;
19:02:39:233;-0,0135;0,3006;-0,0132;56,35147452;37,52014528;0,00000000;
19:02:39:253;-0,0135;0,3006;-0,0132;56,35147452;37,52014528;0,00000000;
19:02:39:273;-0,0135;0,3006;-0,0132;56,35147452;37,52014528;0,00000000;
19:02:39:275;-0,0135;0,3006;-0,0132;56,35147452;37,52014528;0,00000000;
19:02:39:276;-0,0038;0,2807;-0,0032;56,35147452;37,52014528;0,00000000;
19:02:39:293;-0,0038;0,2807;-0,0032;56,35147452;37,52014528;0,00000000;
19:02:39:313;-0,0038;0,2807;-0,0032;56,35147452;37,52014528;0,00000000;
19:02:39:333;-0,0038;0,2807;-0,0032;56,35147452;37,52014528;0,00000000;
19:02:39:335;-0,0038;0,2807;-0,0032;56,35147452;37,52014528;0,00000000;
19:02:39:337;-0,0247;0,2935;-0,0156;56,35147452;37,52014528;0,00000000;
19:02:39:354;-0,0247;0,2935;-0,0156;56,35147452;37,52014528;0,00000000;
19:02:39:380;-0,0247;0,2935;-0,0156;56,35147452;37,52014528;0,00000000;
19:02:39:395;-0,0247;0,2935;-0,0156;56,35147452;37,52014528;0,00000000;
19:02:39:397;-0,0247;0,2935;-0,0156;56,35147452;37,52014528;0,00000000;
19:02:39:398;-0,0290;0,2596;-0,0350;56,35147452;37,52014528;0,00000000;
19:02:39:413;-0,0290;0,2596;-0,0350;56,35147452;37,52014528;0,00000000;
19:02:39:433;-0,0290;0,2596;-0,0350;56,35147452;37,52014528;0,00000000;
19:02:39:454;-0,0290;0,2596;-0,0350;56,35147452;37,52014528;0,00000000;
19:02:39:456;-0,0290;0,2596;-0,0350;56,35147452;37,52014528;0,00000000;
19:02:39:458;0,0065;0,2494;-0,0449;56,35147452;37,52014528;0,00000000;
19:02:39:475;0,0065;0,2494;-0,0449;56,35147452;37,52014528;0,00000000;
19:02:39:494;0,0065;0,2494;-0,0449;56,35147452;37,52014528;0,00000000;
19:02:39:514;0,0065;0,2494;-0,0449;56,35147452;37,52014528;0,00000000;
19:02:39:517;0,0065;0,2494;-0,0449;56,35147452;37,52014528;0,00000000;
19:02:39:518;0,0009;0,2224;-0,0385;56,35147452;37,52014528;0,00000000;
19:02:39:534;0,0009;0,2224;-0,0385;56,35147452;37,52014528;0,00000000;
19:02:39:555;0,0009;0,2224;-0,0385;56,35147452;37,52014528;0,00000000;
19:02:39:575;0,0009;0,2224;-0,0385;56,35147452;37,52014528;0,00000000;
19:02:39:577;0,0009;0,2224;-0,0385;56,35147452;37,52014528;0,00000000;
19:02:39:580;-0,0087;0,2512;-0,0112;56,35147452;37,52014528;0,00000000;
19:02:39:595;-0,0087;0,2512;-0,0112;56,35147452;37,52014528;0,00000000;
19:02:39:615;-0,0087;0,2512;-0,0112;56,35147452;37,52014528;0,00000000;
19:02:39:635;-0,0087;0,2512;-0,0112;56,35147452;37,52014528;0,00000000;
19:02:39:638;-0,0087;0,2512;-0,0112;56,35147452;37,52014528;0,00000000;
19:02:39:641;-0,0407;0,2259;0,0103;56,35147452;37,52014528;0,00000000;
19:02:39:657;-0,0407;0,2259;0,0103;56,35147452;37,52014528;0,00000000;
19:02:39:682;-0,0407;0,2259;0,0103;56,35147452;37,52014528;0,00000000;
19:02:39:696;-0,0407;0,2259;0,0103;56,35147452;37,52014528;0,00000000;
19:02:39:699;-0,0407;0,2259;0,0103;56,35147452;37,52014528;0,00000000;
19:02:39:701;-0,0243;0,2286;-0,0117;56,35147452;37,52014528;0,00000000;
19:02:39:716;-0,0243;0,2286;-0,0117;56,35147452;37,52014528;0,00000000;
19:02:39:736;-0,0243;0,2286;-0,0117;56,35147452;37,52014528;0,00000000;
19:02:39:756;-0,0243;0,2286;-0,0117;56,35147452;37,52014528;0,00000000;
19:02:39:758;-0,0243;0,2286;-0,0117;56,35147452;37,52014528;0,00000000;
19:02:39:761;-0,0253;0,2120;-0,0171;56,35147452;37,52014528;0,00000000;
19:02:39:776;-0,0253;0,2120;-0,0171;56,35147452;37,52014528;0,00000000;
19:02:39:798;-0,0253;0,2120;-0,0171;56,35147452;37,52014528;0,00000000;
19:02:39:816;-0,0253;0,2120;-0,0171;56,35152117;37,52010628;0,81000000;
19:02:39:817;-0,0253;0,2120;-0,0171;56,35152117;37,52010628;0,81000000;
19:02:39:819;0,0480;0,2623;0,0575;56,35152117;37,52010628;0,81000000;
19:02:39:835;0,0480;0,2623;0,0575;56,35152117;37,52010628;0,81000000;
19:02:39:855;0,0480;0,2623;0,0575;56,35152117;37,52010628;0,81000000;
19:02:39:876;0,0480;0,2623;0,0575;56,35152117;37,52010628;0,81000000;
19:02:39:878;0,0480;0,2623;0,0575;56,35152117;37,52010628;0,81000000;
19:02:39:879;-0,0189;0,2598;0,0019;56,35152117;37,52010628;0,81000000;
19:02:39:896;-0,0189;0,2598;0,0019;56,35152117;37,52010628;0,81000000;
19:02:39:916;-0,0189;0,2598;0,0019;56,35152117;37,52010628;0,81000000;
19:02:39:937;-0,0189;0,2598;0,0019;56,35152117;37,52010628;0,81000000;
19:02:39:941;-0,0189;0,2598;0,0019;56,35152117;37,52010628;0,81000000;
19:02:39:943;0,0310;0,2565;-0,0466;56,35152117;37,52010628;0,81000000;
19:02:39:960;0,0310;0,2565;-0,0466;56,35152117;37,52010628;0,81000000;
19:02:39:980;0,0310;0,2565;-0,0466;56,35152117;37,52010628;0,81000000;
19:02:39:999;0,0310;0,2565;-0,0466;56,35152117;37,52010628;0,81000000;
19:02:40:001;0,0310;0,2565;-0,0466;56,35152117;37,52010628;0,81000000;
19:02:40:003;-0,0513;0,1692;0,0012;56,35152117;37,52010628;0,81000000;
19:02:40:017;-0,0513;0,1692;0,0012;56,35152117;37,52010628;0,81000000;
19:02:40:037;-0,0513;0,1692;0,0012;56,35152117;37,52010628;0,81000000;
19:02:40:057;-0,0513;0,1692;0,0012;56,35152117;37,52010628;0,81000000;
19:02:40:059;-0,0513;0,1692;0,0012;56,35152117;37,52010628;0,81000000;
19:02:40:061;-0,0225;0,1705;0,0532;56,35152117;37,52010628;0,81000000;
19:02:40:077;-0,0225;0,1705;0,0532;56,35152117;37,52010628;0,81000000;
19:02:40:097;-0,0225;0,1705;0,0532;56,35152117;37,52010628;0,81000000;
19:02:40:117;-0,0225;0,1705;0,0532;56,35152117;37,52010628;0,81000000;
19:02:40:120;-0,0225;0,1705;0,0532;56,35152117;37,52010628;0,81000000;
19:02:40:121;-0,0473;0,1150;-0,0068;56,35152117;37,52010628;0,81000000;
19:02:40:138;-0,0473;0,1150;-0,0068;56,35152117;37,52010628;0,81000000;
19:02:40:159;-0,0473;0,1150;-0,0068;56,35152117;37,52010628;0,81000000;
19:02:40:178;-0,0473;0,1150;-0,0068;56,35152117;37,52010628;0,81000000;
19:02:40:181;-0,0473;0,1150;-0,0068;56,35152117;37,52010628;0,81000000;
19:02:40:182;0,0776;0,1155;-0,0670;56,35152117;37,52010628;0,81000000;
19:02:40:199;0,0776;0,1155;-0,0670;56,35152117;37,52010628;0,81000000;
19:02:40:218;0,0776;0,1155;-0,0670;56,35152117;37,52010628;0,81000000;
19:02:40:238;0,0776;0,1155;-0,0670;56,35152117;37,52010628;0,81000000;
19:02:40:241;0,0776;0,1155;-0,0670;56,35152117;37,52010628;0,81000000;
19:02:40:243;-0,0142;0,0282;-0,0241;56,35152117;37,52010628;0,81000000;
19:02:40:258;-0,0142;0,0282;-0,0241;56,35152117;37,52010628;0,81000000;
19:02:40:279;-0,0142;0,0282;-0,0241;56,35152117;37,52010628;0,81000000;
19:02:40:298;-0,0142;0,0282;-0,0241;56,35152117;37,52010628;0,81000000;
19:02:40:300;-0,0142;0,0282;-0,0241;56,35152117;37,52010628;0,81000000;
19:02:40:302;-0,0231;0,0499;-0,0043;56,35152117;37,52010628;0,81000000;
19:02:40:318;-0,0231;0,0499;-0,0043;56,35152117;37,52010628;0,81000000;
19:02:40:339;-0,0231;0,0499;-0,0043;56,35152117;37,52010628;0,81000000;
19:02:40:362;-0,0231;0,0499;-0,0043;56,35152117;37,52010628;0,81000000;
19:02:40:364;-0,0231;0,0499;-0,0043;56,35152117;37,52010628;0,81000000;
19:02:40:365;-0,0455;-0,0501;0,1125;56,35152117;37,52010628;0,81000000;
19:02:40:380;-0,0455;-0,0501;0,1125;56,35152117;37,52010628;0,81000000;
19:02:40:398;-0,0455;-0,0501;0,1125;56,35152117;37,52010628;0,81000000;
19:02:40:419;-0,0455;-0,0501;0,1125;56,35152117;37,52010628;0,81000000;
19:02:40:421;-0,0455;-0,0501;0,1125;56,35152117;37,52010628;0,81000000;
19:02:40:423;0,0505;-0,0202;0,1152;56,35152117;37,52010628;0,81000000;
19:02:40:439;0,0505;-0,0202;0,1152;56,35152117;37,52010628;0,81000000;
19:02:40:460;0,0505;-0,0202;0,1152;56,35152117;37,52010628;0,81000000;
19:02:40:482;-0,0007;-0,0407;-0,0691;56,35152117;37,52010628;0,81000000;
19:02:40:485;-0,0007;-0,0407;-0,0691;56,35152117;37,52010628;0,81000000;
19:02:40:487;-0,0007;-0,0407;-0,0691;56,35152117;37,52010628;0,81000000;
19:02:40:500;-0,0007;-0,0407;-0,0691;56,35152117;37,52010628;0,81000000;
19:02:40:519;-0,0007;-0,0407;-0,0691;56,35152117;37,52010628;0,81000000;
19:02:40:539;-0,0007;-0,0407;-0,0691;56,35152117;37,52010628;0,81000000;
19:02:40:542;-0,0007;-0,0407;-0,0691;56,35152117;37,52010628;0,81000000;
19:02:40:544;0,0831;-0,0112;-0,0683;56,35152117;37,52010628;0,81000000;
19:02:40:563;0,0831;-0,0112;-0,0683;56,35152117;37,52010628;0,81000000;
19:02:40:581;0,0831;-0,0112;-0,0683;56,35152117;37,52010628;0,81000000;
19:02:40:600;0,0831;-0,0112;-0,0683;56,35152117;37,52010628;0,81000000;
19:02:40:602;0,0831;-0,0112;-0,0683;56,35152117;37,52010628;0,81000000;
19:02:40:603;-0,0099;0,0194;-0,0411;56,35152117;37,52010628;0,81000000;
19:02:40:620;-0,0099;0,0194;-0,0411;56,35152117;37,52010628;0,81000000;
19:02:40:641;-0,0099;0,0194;-0,0411;56,35152117;37,52010628;0,81000000;
19:02:40:660;-0,0099;0,0194;-0,0411;56,35152117;37,52010628;0,81000000;
19:02:40:663;-0,0099;0,0194;-0,0411;56,35152117;37,52010628;0,81000000;
19:02:40:664;-0,0711;0,0041;-0,0409;56,35152117;37,52010628;0,81000000;
19:02:40:680;-0,0711;0,0041;-0,0409;56,35152117;37,52010628;0,81000000;
19:02:40:701;-0,0711;0,0041;-0,0409;56,35152117;37,52010628;0,81000000;
19:02:40:721;-0,0711;0,0041;-0,0409;56,35152117;37,52010628;0,81000000;
19:02:40:724;0,0056;0,0330;-0,0113;56,35152117;37,52010628;0,81000000;
19:02:40:726;0,0056;0,0330;-0,0113;56,35152117;37,52010628;0,81000000;
19:02:40:741;0,0056;0,0330;-0,0113;56,35152117;37,52010628;0,81000000;
19:02:40:763;0,0056;0,0330;-0,0113;56,35152117;37,52010628;0,81000000;
19:02:40:781;-0,0377;0,0447;-0,0067;56,35152117;37,52010628;0,81000000;
19:02:40:783;-0,0377;0,0447;-0,0067;56,35152117;37,52010628;0,81000000;
19:02:40:784;-0,0377;0,0447;-0,0067;56,35152117;37,52010628;0,81000000;
19:02:40:800;-0,0377;0,0447;-0,0067;56,35152117;37,52010628;0,81000000;
19:02:40:821;-0,0377;0,0447;-0,0067;56,35153339;37,52007957;1,75999999;
19:02:40:841;-0,0377;0,0447;-0,0067;56,35153339;37,52007957;1,75999999;
19:02:40:842;-0,0377;0,0447;-0,0067;56,35153339;37,52007957;1,75999999;
19:02:40:843;-0,0285;0,0453;-0,0787;56,35153339;37,52007957;1,75999999;
19:02:40:861;-0,0285;0,0453;-0,0787;56,35153339;37,52007957;1,75999999;
19:02:40:882;-0,0285;0,0453;-0,0787;56,35153339;37,52007957;1,75999999;
19:02:40:901;-0,0285;0,0453;-0,0787;56,35153339;37,52007957;1,75999999;
19:02:40:903;-0,0285;0,0453;-0,0787;56,35153339;37,52007957;1,75999999;
19:02:40:904;0,0269;0,0297;0,0276;56,35153339;37,52007957;1,75999999;
19:02:40:922;0,0269;0,0297;0,0276;56,35153339;37,52007957;1,75999999;
19:02:40:941;0,0269;0,0297;0,0276;56,35153339;37,52007957;1,75999999;
19:02:40:962;0,0269;0,0297;0,0276;56,35153339;37,52007957;1,75999999;
19:02:40:964;0,0269;0,0297;0,0276;56,35153339;37,52007957;1,75999999;
19:02:40:965;0,0529;-0,0368;0,0780;56,35153339;37,52007957;1,75999999;
19:02:40:983;0,0529;-0,0368;0,0780;56,35153339;37,52007957;1,75999999;
19:02:41:002;0,0529;-0,0368;0,0780;56,35153339;37,52007957;1,75999999;
19:02:41:023;0,0529;-0,0368;0,0780;56,35153339;37,52007957;1,75999999;
19:02:41:027;0,0529;-0,0368;0,0780;56,35153339;37,52007957;1,75999999;
19:02:41:028;0,0412;-0,0399;0,0040;56,35153339;37,52007957;1,75999999;
19:02:41:043;0,0412;-0,0399;0,0040;56,35153339;37,52007957;1,75999999;
19:02:41:114;0,0412;-0,0399;0,0040;56,35153339;37,52007957;1,75999999;
19:02:41:117;0,0412;-0,0399;0,0040;56,35153339;37,52007957;1,75999999;
19:02:41:118;-0,0071;-0,0902;-0,0543;56,35153339;37,52007957;1,75999999;
19:02:41:165;-0,0071;-0,0902;-0,0543;56,35153339;37,52007957;1,75999999;
19:02:41:168;-0,0071;-0,0902;-0,0543;56,35153339;37,52007957;1,75999999;
19:02:41:170;-0,0836;-0,0967;0,1093;56,35153339;37,52007957;1,75999999;
19:02:41:225;-0,0836;-0,0967;0,1093;56,35153339;37,52007957;1,75999999;
19:02:41:228;-0,0836;-0,0967;0,1093;56,35153339;37,52007957;1,75999999;
19:02:41:230;0,0113;-0,1228;0,2214;56,35153339;37,52007957;1,75999999;
19:02:41:285;0,0113;-0,1228;0,2214;56,35153339;37,52007957;1,75999999;
19:02:41:289;0,0113;-0,1228;0,2214;56,35153339;37,52007957;1,75999999;
19:02:41:291;0,0246;-0,1642;0,2421;56,35153339;37,52007957;1,75999999;
19:02:41:346;0,0246;-0,1642;0,2421;56,35153339;37,52007957;1,75999999;
19:02:41:349;0,0246;-0,1642;0,2421;56,35153339;37,52007957;1,75999999;
19:02:41:351;-0,0414;-0,2044;0,0173;56,35153339;37,52007957;1,75999999;
19:02:41:406;-0,0414;-0,2044;0,0173;56,35153339;37,52007957;1,75999999;
19:02:41:409;-0,0414;-0,2044;0,0173;56,35153339;37,52007957;1,75999999;
19:02:41:412;-0,0510;-0,2415;-0,0629;56,35153339;37,52007957;1,75999999;
19:02:41:476;-0,0510;-0,2415;-0,0629;56,35153339;37,52007957;1,75999999;
19:02:41:480;-0,0510;-0,2415;-0,0629;56,35153339;37,52007957;1,75999999;
19:02:41:482;0,0147;-0,2003;-0,2288;56,35153339;37,52007957;1,75999999;
19:02:41:535;0,0147;-0,2003;-0,2288;56,35153339;37,52007957;1,75999999;
19:02:41:538;0,0147;-0,2003;-0,2288;56,35153339;37,52007957;1,75999999;
19:02:41:539;0,0710;-0,1839;-0,1968;56,35153339;37,52007957;1,75999999;
19:02:41:596;0,0710;-0,1839;-0,1968;56,35153339;37,52007957;1,75999999;
19:02:41:598;0,0710;-0,1839;-0,1968;56,35153339;37,52007957;1,75999999;
19:02:41:599;0,0640;-0,2369;0,0428;56,35153339;37,52007957;1,75999999;
19:02:41:656;0,0640;-0,2369;0,0428;56,35153339;37,52007957;1,75999999;
19:02:41:658;0,0331;-0,2093;0,1577;56,35153339;37,52007957;1,75999999;
19:02:41:660;0,0331;-0,2093;0,1577;56,35153339;37,52007957;1,75999999;
19:02:41:728;0,0331;-0,2093;0,1577;56,35153339;37,52007957;1,75999999;
19:02:41:731;-0,0212;-0,2695;-0,0822;56,35153339;37,52007957;1,75999999;
19:02:41:733;-0,0212;-0,2695;-0,0822;56,35153339;37,52007957;1,75999999;
19:02:41:794;-0,0212;-0,2695;-0,0822;56,35153339;37,52007957;1,75999999;
19:02:41:796;-0,0212;-0,2695;-0,0822;56,35155476;37,52002624;2,90000010;
19:02:41:799;-0,0576;-0,2159;-0,0376;56,35155476;37,52002624;2,90000010;
19:02:41:820;-0,0576;-0,2159;-0,0376;56,35155476;37,52002624;2,90000010;
19:02:41:823;-0,0029;-0,2280;0,0815;56,35155476;37,52002624;2,90000010;
19:02:41:826;-0,0029;-0,2280;0,0815;56,35155476;37,52002624;2,90000010;
19:02:41:836;-0,0029;-0,2280;0,0815;56,35155476;37,52002624;2,90000010;
19:02:41:856;-0,0029;-0,2280;0,0815;56,35155476;37,52002624;2,90000010;
19:02:41:858;-0,0029;-0,2280;0,0815;56,35155476;37,52002624;2,90000010;
19:02:41:860;-0,0037;-0,2046;0,0726;56,35155476;37,52002624;2,90000010;
19:02:41:876;-0,0037;-0,2046;0,0726;56,35155476;37,52002624;2,90000010;
19:02:41:896;-0,0037;-0,2046;0,0726;56,35155476;37,52002624;2,90000010;
19:02:41:917;-0,0037;-0,2046;0,0726;56,35155476;37,52002624;2,90000010;
19:02:41:919;-0,0037;-0,2046;0,0726;56,35155476;37,52002624;2,90000010;
19:02:41:920;0,0789;-0,2004;0,1732;56,35155476;37,52002624;2,90000010;
19:02:41:930;0,0789;-0,2004;0,1732;56,35155476;37,52002624;2,90000010;
19:02:41:947;0,0789;-0,2004;0,1732;56,35155476;37,52002624;2,90000010;
19:02:41:967;0,0789;-0,2004;0,1732;56,35155476;37,52002624;2,90000010;
19:02:41:987;0,0789;-0,2004;0,1732;56,35155476;37,52002624;2,90000010;
19:02:41:989;0,0789;-0,2004;0,1732;56,35155476;37,52002624;2,90000010;
19:02:41:990;0,0719;-0,2058;0,0595;56,35155476;37,52002624;2,90000010;
19:02:42:008;0,0719;-0,2058;0,0595;56,35155476;37,52002624;2,90000010;
19:02:42:029;0,0719;-0,2058;0,0595;56,35155476;37,52002624;2,90000010;
19:02:42:048;0,0719;-0,2058;0,0595;56,35155476;37,52002624;2,90000010;
19:02:42:052;0,0719;-0,2058;0,0595;56,35155476;37,52002624;2,90000010;
19:02:42:056;-0,0161;-0,1651;-0,1003;56,35155476;37,52002624;2,90000010;
19:02:42:068;-0,0161;-0,1651;-0,1003;56,35155476;37,52002624;2,90000010;
19:02:42:088;-0,0161;-0,1651;-0,1003;56,35155476;37,52002624;2,90000010;
19:02:42:109;-0,0161;-0,1651;-0,1003;56,35155476;37,52002624;2,90000010;
19:02:42:110;-0,0161;-0,1651;-0,1003;56,35155476;37,52002624;2,90000010;
19:02:42:112;-0,0524;-0,1809;-0,1215;56,35155476;37,52002624;2,90000010;
19:02:42:129;-0,0524;-0,1809;-0,1215;56,35155476;37,52002624;2,90000010;
19:02:42:150;-0,0524;-0,1809;-0,1215;56,35155476;37,52002624;2,90000010;
19:02:42:169;-0,0524;-0,1809;-0,1215;56,35155476;37,52002624;2,90000010;
19:02:42:171;-0,0524;-0,1809;-0,1215;56,35155476;37,52002624;2,90000010;
19:02:42:173;0,0307;-0,1438;-0,0145;56,35155476;37,52002624;2,90000010;
19:02:42:190;0,0307;-0,1438;-0,0145;56,35155476;37,52002624;2,90000010;
19:02:42:210;0,0307;-0,1438;-0,0145;56,35155476;37,52002624;2,90000010;
19:02:42:230;0,0307;-0,1438;-0,0145;56,35155476;37,52002624;2,90000010;
19:02:42:232;0,0307;-0,1438;-0,0145;56,35155476;37,52002624;2,90000010;
19:02:42:235;-0,0256;-0,2090;0,1327;56,35155476;37,52002624;2,90000010;
19:02:42:252;-0,0256;-0,2090;0,1327;56,35155476;37,52002624;2,90000010;
19:02:42:270;-0,0256;-0,2090;0,1327;56,35155476;37,52002624;2,90000010;
19:02:42:288;-0,0256;-0,2090;0,1327;56,35155476;37,52002624;2,90000010;
19:02:42:290;-0,0256;-0,2090;0,1327;56,35155476;37,52002624;2,90000010;
19:02:42:292;-0,0613;-0,1677;0,1179;56,35155476;37,52002624;2,90000010;
19:02:42:309;-0,0613;-0,1677;0,1179;56,35155476;37,52002624;2,90000010;
19:02:42:331;-0,0613;-0,1677;0,1179;56,35155476;37,52002624;2,90000010;
19:02:42:350;-0,0613;-0,1677;0,1179;56,35155476;37,52002624;2,90000010;
19:02:42:353;-0,0613;-0,1677;0,1179;56,35155476;37,52002624;2,90000010;
19:02:42:354;-0,0461;-0,1613;-0,0884;56,35155476;37,52002624;2,90000010;
19:02:42:369;-0,0461;-0,1613;-0,0884;56,35155476;37,52002624;2,90000010;
19:02:42:390;-0,0461;-0,1613;-0,0884;56,35155476;37,52002624;2,90000010;
19:02:42:411;-0,0461;-0,1613;-0,0884;56,35155476;37,52002624;2,90000010;
19:02:42:415;-0,0461;-0,1613;-0,0884;56,35155476;37,52002624;2,90000010;
19:02:42:417;0,0649;-0,1702;-0,1140;56,35155476;37,52002624;2,90000010;
19:02:42:430;0,0649;-0,1702;-0,1140;56,35155476;37,52002624;2,90000010;
19:02:42:451;0,0649;-0,1702;-0,1140;56,35155476;37,52002624;2,90000010;
19:02:42:470;0,0649;-0,1702;-0,1140;56,35155476;37,52002624;2,90000010;
19:02:42:473;0,0649;-0,1702;-0,1140;56,35155476;37,52002624;2,90000010;
19:02:42:484;0,0524;-0,1325;0,0232;56,35155476;37,52002624;2,90000010;
19:02:42:491;0,0524;-0,1325;0,0232;56,35155476;37,52002624;2,90000010;
19:02:42:510;0,0524;-0,1325;0,0232;56,35155476;37,52002624;2,90000010;
19:02:42:531;0,0524;-0,1325;0,0232;56,35155476;37,52002624;2,90000010;
19:02:42:533;0,0652;-0,1397;0,0795;56,35155476;37,52002624;2,90000010;
19:02:42:535;0,0652;-0,1397;0,0795;56,35155476;37,52002624;2,90000010;
19:02:42:550;0,0652;-0,1397;0,0795;56,35155476;37,52002624;2,90000010;
19:02:42:570;0,0652;-0,1397;0,0795;56,35155476;37,52002624;2,90000010;
19:02:42:591;0,0652;-0,1397;0,0795;56,35155476;37,52002624;2,90000010;
19:02:42:594;0,0652;-0,1397;0,0795;56,35155476;37,52002624;2,90000010;
19:02:42:595;0,0164;-0,1759;-0,0777;56,35155476;37,52002624;2,90000010;
19:02:42:611;0,0164;-0,1759;-0,0777;56,35155476;37,52002624;2,90000010;
19:02:42:633;0,0164;-0,1759;-0,0777;56,35155476;37,52002624;2,90000010;
19:02:42:651;0,0164;-0,1759;-0,0777;56,35155476;37,52002624;2,90000010;
19:02:42:654;0,0164;-0,1759;-0,0777;56,35155476;37,52002624;2,90000010;
19:02:42:656;-0,0057;-0,1395;-0,0712;56,35155476;37,52002624;2,90000010;
19:02:42:673;-0,0057;-0,1395;-0,0712;56,35155476;37,52002624;2,90000010;
19:02:42:692;-0,0057;-0,1395;-0,0712;56,35155476;37,52002624;2,90000010;
19:02:42:711;-0,0057;-0,1395;-0,0712;56,35155476;37,52002624;2,90000010;
19:02:42:713;-0,0057;-0,1395;-0,0712;56,35155476;37,52002624;2,90000010;
19:02:42:714;-0,0413;-0,2618;0,0518;56,35155476;37,52002624;2,90000010;
19:02:42:732;-0,0413;-0,2618;0,0518;56,35155476;37,52002624;2,90000010;
19:02:42:751;-0,0413;-0,2618;0,0518;56,35155476;37,52002624;2,90000010;
19:02:42:777;-0,0413;-0,2618;0,0518;56,35155476;37,52002624;2,90000010;
19:02:42:780;-0,0413;-0,2618;0,0518;56,35155476;37,52002624;2,90000010;
19:02:42:782;-0,0217;-0,1355;0,0751;56,35155476;37,52002624;2,90000010;
19:02:42:793;-0,0217;-0,1355;0,0751;56,35155476;37,52002624;2,90000010;
19:02:42:812;-0,0217;-0,1355;0,0751;56,35155476;37,52002624;2,90000010;
19:02:42:831;-0,0217;-0,1355;0,0751;56,35155476;37,52002624;2,90000010;
19:02:42:833;-0,0217;-0,1355;0,0751;56,35155808;37,51996985;3,61999989;
19:02:42:835;0,0132;0,0085;-0,1365;56,35155808;37,51996985;3,61999989;
19:02:42:851;0,0132;0,0085;-0,1365;56,35155808;37,51996985;3,61999989;
19:02:42:871;0,0132;0,0085;-0,1365;56,35155808;37,51996985;3,61999989;
19:02:42:892;0,0132;0,0085;-0,1365;56,35155808;37,51996985;3,61999989;
19:02:42:893;0,0132;0,0085;-0,1365;56,35155808;37,51996985;3,61999989;
19:02:42:895;0,0400;0,0641;0,0205;56,35155808;37,51996985;3,61999989;
19:02:42:912;0,0400;0,0641;0,0205;56,35155808;37,51996985;3,61999989;
19:02:42:933;0,0400;0,0641;0,0205;56,35155808;37,51996985;3,61999989;
19:02:42:954;0,0400;0,0641;0,0205;56,35155808;37,51996985;3,61999989;
19:02:42:958;-0,0333;0,1293;0,2018;56,35155808;37,51996985;3,61999989;
19:02:42:961;-0,0333;0,1293;0,2018;56,35155808;37,51996985;3,61999989;
19:02:42:974;-0,0333;0,1293;0,2018;56,35155808;37,51996985;3,61999989;
19:02:42:992;-0,0333;0,1293;0,2018;56,35155808;37,51996985;3,61999989;
19:02:43:012;-0,0333;0,1293;0,2018;56,35155808;37,51996985;3,61999989;
19:02:43:014;-0,0333;0,1293;0,2018;56,35155808;37,51996985;3,61999989;
19:02:43:015;-0,0232;-0,0054;0,2269;56,35155808;37,51996985;3,61999989;
19:02:43:033;-0,0232;-0,0054;0,2269;56,35155808;37,51996985;3,61999989;
19:02:43:052;-0,0232;-0,0054;0,2269;56,35155808;37,51996985;3,61999989;
19:02:43:073;-0,0232;-0,0054;0,2269;56,35155808;37,51996985;3,61999989;
19:02:43:075;-0,0232;-0,0054;0,2269;56,35155808;37,51996985;3,61999989;
19:02:43:077;-0,0053;0,0172;0,0750;56,35155808;37,51996985;3,61999989;
19:02:43:094;-0,0053;0,0172;0,0750;56,35155808;37,51996985;3,61999989;
19:02:43:114;-0,0053;0,0172;0,0750;56,35155808;37,51996985;3,61999989;
19:02:43:134;-0,0053;0,0172;0,0750;56,35155808;37,51996985;3,61999989;
19:02:43:136;-0,0053;0,0172;0,0750;56,35155808;37,51996985;3,61999989;
19:02:43:138;0,0167;0,0422;-0,3482;56,35155808;37,51996985;3,61999989;
19:02:43:154;0,0167;0,0422;-0,3482;56,35155808;37,51996985;3,61999989;
19:02:43:174;0,0167;0,0422;-0,3482;56,35155808;37,51996985;3,61999989;
19:02:43:194;0,0167;0,0422;-0,3482;56,35155808;37,51996985;3,61999989;
19:02:43:197;0,0167;0,0422;-0,3482;56,35155808;37,51996985;3,61999989;
19:02:43:199;0,0660;-0,0122;-0,1972;56,35155808;37,51996985;3,61999989;
19:02:43:214;0,0660;-0,0122;-0,1972;56,35155808;37,51996985;3,61999989;
19:02:43:234;0,0660;-0,0122;-0,1972;56,35155808;37,51996985;3,61999989;
19:02:43:256;0,0660;-0,0122;-0,1972;56,35155808;37,51996985;3,61999989;
19:02:43:259;0,0660;-0,0122;-0,1972;56,35155808;37,51996985;3,61999989;
19:02:43:262;-0,0780;-0,1157;0,0632;56,35155808;37,51996985;3,61999989;
19:02:43:277;-0,0780;-0,1157;0,0632;56,35155808;37,51996985;3,61999989;
19:02:43:296;-0,0780;-0,1157;0,0632;56,35155808;37,51996985;3,61999989;
19:02:43:316;-0,0780;-0,1157;0,0632;56,35155808;37,51996985;3,61999989;
19:02:43:320;-0,0780;-0,1157;0,0632;56,35155808;37,51996985;3,61999989;
19:02:43:322;-0,0548;-0,1297;0,0447;56,35155808;37,51996985;3,61999989;
19:02:43:334;-0,0548;-0,1297;0,0447;56,35155808;37,51996985;3,61999989;
19:02:43:354;-0,0548;-0,1297;0,0447;56,35155808;37,51996985;3,61999989;
19:02:43:375;-0,0548;-0,1297;0,0447;56,35155808;37,51996985;3,61999989;
19:02:43:377;-0,0548;-0,1297;0,0447;56,35155808;37,51996985;3,61999989;
19:02:43:378;0,0606;-0,0807;0,0724;56,35155808;37,51996985;3,61999989;
19:02:43:398;0,0606;-0,0807;0,0724;56,35155808;37,51996985;3,61999989;
19:02:43:415;0,0606;-0,0807;0,0724;56,35155808;37,51996985;3,61999989;
19:02:43:435;0,0606;-0,0807;0,0724;56,35155808;37,51996985;3,61999989;
19:02:43:437;0,0606;-0,0807;0,0724;56,35155808;37,51996985;3,61999989;
19:02:43:439;0,0153;-0,0482;0,1058;56,35155808;37,51996985;3,61999989;
19:02:43:456;0,0153;-0,0482;0,1058;56,35155808;37,51996985;3,61999989;
19:02:43:477;0,0153;-0,0482;0,1058;56,35155808;37,51996985;3,61999989;
19:02:43:496;0,0153;-0,0482;0,1058;56,35155808;37,51996985;3,61999989;
19:02:43:498;0,0153;-0,0482;0,1058;56,35155808;37,51996985;3,61999989;
19:02:43:500;0,0518;-0,0423;-0,0413;56,35155808;37,51996985;3,61999989;
19:02:43:516;0,0518;-0,0423;-0,0413;56,35155808;37,51996985;3,61999989;
19:02:43:536;0,0518;-0,0423;-0,0413;56,35155808;37,51996985;3,61999989;
19:02:43:557;0,0518;-0,0423;-0,0413;56,35155808;37,51996985;3,61999989;
19:02:43:562;0,0518;-0,0423;-0,0413;56,35155808;37,51996985;3,61999989;
19:02:43:564;0,0770;0,0215;-0,0533;56,35155808;37,51996985;3,61999989;
19:02:43:579;0,0770;0,0215;-0,0533;56,35155808;37,51996985;3,61999989;
19:02:43:601;0,0770;0,0215;-0,0533;56,35155808;37,51996985;3,61999989;
19:02:43:617;0,0770;0,0215;-0,0533;56,35155808;37,51996985;3,61999989;
19:02:43:620;-0,0677;0,0066;-0,1291;56,35155808;37,51996985;3,61999989;
19:02:43:621;-0,0677;0,0066;-0,1291;56,35155808;37,51996985;3,61999989;
19:02:43:636;-0,0677;0,0066;-0,1291;56,35155808;37,51996985;3,61999989;
19:02:43:656;-0,0677;0,0066;-0,1291;56,35155808;37,51996985;3,61999989;
19:02:43:676;-0,0677;0,0066;-0,1291;56,35155808;37,51996985;3,61999989;
19:02:43:678;-0,0677;0,0066;-0,1291;56,35155808;37,51996985;3,61999989;
19:02:43:682;0,0001;0,0424;0,1396;56,35155808;37,51996985;3,61999989;
19:02:43:697;0,0001;0,0424;0,1396;56,35155808;37,51996985;3,61999989;
19:02:43:716;0,0001;0,0424;0,1396;56,35155808;37,51996985;3,61999989;
19:02:43:736;0,0001;0,0424;0,1396;56,35155808;37,51996985;3,61999989;
19:02:43:739;0,0001;0,0424;0,1396;56,35155808;37,51996985;3,61999989;
19:02:43:742;0,0569;0,0254;0,0857;56,35155808;37,51996985;3,61999989;
19:02:43:758;0,0569;0,0254;0,0857;56,35155808;37,51996985;3,61999989;
19:02:43:783;0,0569;0,0254;0,0857;56,35155808;37,51996985;3,61999989;
19:02:43:801;0,0569;0,0254;0,0857;56,35155808;37,51996985;3,61999989;
19:02:43:803;0,0569;0,0254;0,0857;56,35158009;37,51990378;4,17000008;
19:02:43:809;0,0640;-0,0103;-0,1839;56,35158009;37,51990378;4,17000008;
19:02:43:817;0,0640;-0,0103;-0,1839;56,35158009;37,51990378;4,17000008;
19:02:43:836;0,0640;-0,0103;-0,1839;56,35158009;37,51990378;4,17000008;
19:02:43:857;0,0640;-0,0103;-0,1839;56,35158009;37,51990378;4,17000008;
19:02:43:859;0,0640;-0,0103;-0,1839;56,35158009;37,51990378;4,17000008;
19:02:43:861;-0,0694;0,0547;0,0583;56,35158009;37,51990378;4,17000008;
19:02:43:879;-0,0694;0,0547;0,0583;56,35158009;37,51990378;4,17000008;
19:02:43:897;-0,0694;0,0547;0,0583;56,35158009;37,51990378;4,17000008;
19:02:43:918;-0,0694;0,0547;0,0583;56,35158009;37,51990378;4,17000008;
19:02:43:920;-0,0694;0,0547;0,0583;56,35158009;37,51990378;4,17000008;
19:02:43:922;-0,0592;-0,0373;0,0837;56,35158009;37,51990378;4,17000008;
19:02:43:939;-0,0592;-0,0373;0,0837;56,35158009;37,51990378;4,17000008;
19:02:43:960;-0,0592;-0,0373;0,0837;56,35158009;37,51990378;4,17000008;
19:02:43:978;-0,0592;-0,0373;0,0837;56,35158009;37,51990378;4,17000008;
19:02:43:981;-0,0592;-0,0373;0,0837;56,35158009;37,51990378;4,17000008;
19:02:43:983;0,0435;-0,0140;0,0313;56,35158009;37,51990378;4,17000008;
19:02:43:998;0,0435;-0,0140;0,0313;56,35158009;37,51990378;4,17000008;
19:02:44:029;-0,0470;0,0286;-0,1644;56,35158009;37,51990378;4,17000008;
19:02:44:032;-0,0470;0,0286;-0,1644;56,35158009;37,51990378;4,17000008;
19:02:44:034;-0,0470;0,0286;-0,1644;56,35158009;37,51990378;4,17000008;
19:02:44:049;-0,0470;0,0286;-0,1644;56,35158009;37,51990378;4,17000008;
19:02:44:069;-0,0470;0,0286;-0,1644;56,35158009;37,51990378;4,17000008;
19:02:44:088;-0,0470;0,0286;-0,1644;56,35158009;37,51990378;4,17000008;
19:02:44:091;-0,0470;0,0286;-0,1644;56,35158009;37,51990378;4,17000008;
19:02:44:094;0,0406;-0,0295;-0,1082;56,35158009;37,51990378;4,17000008;
19:02:44:111;0,0406;-0,0295;-0,1082;56,35158009;37,51990378;4,17000008;
19:02:44:130;0,0406;-0,0295;-0,1082;56,35158009;37,51990378;4,17000008;
19:02:44:149;0,0406;-0,0295;-0,1082;56,35158009;37,51990378;4,17000008;
19:02:44:151;0,0406;-0,0295;-0,1082;56,35158009;37,51990378;4,17000008;
19:02:44:153;0,0065;-0,0563;0,0473;56,35158009;37,51990378;4,17000008;
19:02:44:169;0,0065;-0,0563;0,0473;56,35158009;37,51990378;4,17000008;
19:02:44:189;0,0065;-0,0563;0,0473;56,35158009;37,51990378;4,17000008;
19:02:44:209;-0,0044;-0,0217;0,0315;56,35158009;37,51990378;4,17000008;
19:02:44:212;-0,0044;-0,0217;0,0315;56,35158009;37,51990378;4,17000008;
19:02:44:213;-0,0044;-0,0217;0,0315;56,35158009;37,51990378;4,17000008;
19:02:44:230;-0,0044;-0,0217;0,0315;56,35158009;37,51990378;4,17000008;
19:02:44:248;-0,0044;-0,0217;0,0315;56,35158009;37,51990378;4,17000008;
19:02:44:260;-0,0044;-0,0217;0,0315;56,35158009;37,51990378;4,17000008;
19:02:44:272;-0,0044;-0,0217;0,0315;56,35158009;37,51990378;4,17000008;
19:02:44:274;-0,0005;-0,0244;0,0422;56,35158009;37,51990378;4,17000008;
19:02:44:290;-0,0005;-0,0244;0,0422;56,35158009;37,51990378;4,17000008;
19:02:44:309;-0,0005;-0,0244;0,0422;56,35158009;37,51990378;4,17000008;
19:02:44:330;0,0147;0,0247;0,0010;56,35158009;37,51990378;4,17000008;
19:02:44:332;0,0147;0,0247;0,0010;56,35158009;37,51990378;4,17000008;
19:02:44:333;0,0147;0,0247;0,0010;56,35158009;37,51990378;4,17000008;
19:02:44:350;0,0147;0,0247;0,0010;56,35158009;37,51990378;4,17000008;
19:02:44:370;0,0147;0,0247;0,0010;56,35158009;37,51990378;4,17000008;
19:02:44:390;0,0147;0,0247;0,0010;56,35158009;37,51990378;4,17000008;
19:02:44:393;0,0147;0,0247;0,0010;56,35158009;37,51990378;4,17000008;
19:02:44:395;-0,0064;-0,0129;-0,0979;56,35158009;37,51990378;4,17000008;
19:02:44:411;-0,0064;-0,0129;-0,0979;56,35158009;37,51990378;4,17000008;
19:02:44:432;-0,0064;-0,0129;-0,0979;56,35158009;37,51990378;4,17000008;
19:02:44:450;-0,0064;-0,0129;-0,0979;56,35158009;37,51990378;4,17000008;
19:02:44:453;-0,0064;-0,0129;-0,0979;56,35158009;37,51990378;4,17000008;
19:02:44:454;-0,0981;-0,0043;-0,3003;56,35158009;37,51990378;4,17000008;
19:02:44:470;-0,0981;-0,0043;-0,3003;56,35158009;37,51990378;4,17000008;
19:02:44:491;-0,0981;-0,0043;-0,3003;56,35158009;37,51990378;4,17000008;
19:02:44:511;-0,0981;-0,0043;-0,3003;56,35158009;37,51990378;4,17000008;
19:02:44:514;-0,0981;-0,0043;-0,3003;56,35158009;37,51990378;4,17000008;
19:02:44:516;0,0367;0,0197;0,1027;56,35158009;37,51990378;4,17000008;
19:02:44:536;0,0367;0,0197;0,1027;56,35158009;37,51990378;4,17000008;
19:02:44:552;0,0367;0,0197;0,1027;56,35158009;37,51990378;4,17000008;
19:02:44:572;0,0367;0,0197;0,1027;56,35158009;37,51990378;4,17000008;
19:02:44:575;0,0367;0,0197;0,1027;56,35158009;37,51990378;4,17000008;
19:02:44:578;0,0404;-0,0654;0,1262;56,35158009;37,51990378;4,17000008;
19:02:44:600;0,0404;-0,0654;0,1262;56,35158009;37,51990378;4,17000008;
19:02:44:614;0,0404;-0,0654;0,1262;56,35158009;37,51990378;4,17000008;
19:02:44:631;0,0404;-0,0654;0,1262;56,35158009;37,51990378;4,17000008;
19:02:44:633;0,0404;-0,0654;0,1262;56,35158009;37,51990378;4,17000008;
19:02:44:634;0,0044;-0,0515;0,0945;56,35158009;37,51990378;4,17000008;
19:02:44:651;0,0044;-0,0515;0,0945;56,35158009;37,51990378;4,17000008;
19:02:44:671;0,0044;-0,0515;0,0945;56,35158009;37,51990378;4,17000008;
19:02:44:692;0,0044;-0,0515;0,0945;56,35158009;37,51990378;4,17000008;
19:02:44:694;0,0044;-0,0515;0,0945;56,35158009;37,51990378;4,17000008;
19:02:44:695;-0,0107;-0,0511;0,0870;56,35158009;37,51990378;4,17000008;
19:02:44:713;-0,0107;-0,0511;0,0870;56,35158009;37,51990378;4,17000008;
19:02:44:735;-0,0107;-0,0511;0,0870;56,35158009;37,51990378;4,17000008;
19:02:44:753;-0,0107;-0,0511;0,0870;56,35158009;37,51990378;4,17000008;
19:02:44:756;-0,0107;-0,0511;0,0870;56,35158009;37,51990378;4,17000008;
19:02:44:759;-0,0096;-0,0004;0,0371;56,35158009;37,51990378;4,17000008;
19:02:44:775;-0,0096;-0,0004;0,0371;56,35158009;37,51990378;4,17000008;
19:02:44:795;-0,0096;-0,0004;0,0371;56,35158009;37,51990378;4,17000008;
19:02:44:818;-0,0096;-0,0004;0,0371;56,35158009;37,51990378;4,17000008;
19:02:44:820;-0,0096;-0,0004;0,0371;56,35159879;37,51983319;4,59000015;
19:02:44:822;-0,0024;-0,0443;-0,0758;56,35159879;37,51983319;4,59000015;
19:02:44:831;-0,0024;-0,0443;-0,0758;56,35159879;37,51983319;4,59000015;
19:02:44:852;-0,0024;-0,0443;-0,0758;56,35159879;37,51983319;4,59000015;
19:02:44:872;-0,0024;-0,0443;-0,0758;56,35159879;37,51983319;4,59000015;
19:02:44:874;-0,0024;-0,0443;-0,0758;56,35159879;37,51983319;4,59000015;
19:02:44:876;0,0621;0,0067;-0,1955;56,35159879;37,51983319;4,59000015;
19:02:44:892;0,0621;0,0067;-0,1955;56,35159879;37,51983319;4,59000015;
19:02:44:912;0,0621;0,0067;-0,1955;56,35159879;37,51983319;4,59000015;
19:02:44:934;0,0621;0,0067;-0,1955;56,35159879;37,51983319;4,59000015;
19:02:44:937;0,0621;0,0067;-0,1955;56,35159879;37,51983319;4,59000015;
19:02:44:939;-0,0733;0,0016;-0,2608;56,35159879;37,51983319;4,59000015;
19:02:44:954;-0,0733;0,0016;-0,2608;56,35159879;37,51983319;4,59000015;
19:02:44:973;-0,0733;0,0016;-0,2608;56,35159879;37,51983319;4,59000015;
19:02:44:993;-0,0733;0,0016;-0,2608;56,35159879;37,51983319;4,59000015;
19:02:44:995;-0,0733;0,0016;-0,2608;56,35159879;37,51983319;4,59000015;
19:02:44:997;-0,0214;-0,0760;0,0099;56,35159879;37,51983319;4,59000015;
19:02:45:013;-0,0214;-0,0760;0,0099;56,35159879;37,51983319;4,59000015;
19:02:45:034;-0,0214;-0,0760;0,0099;56,35159879;37,51983319;4,59000015;
19:02:45:053;-0,0214;-0,0760;0,0099;56,35159879;37,51983319;4,59000015;
19:02:45:056;-0,0214;-0,0760;0,0099;56,35159879;37,51983319;4,59000015;
19:02:45:058;-0,0804;-0,0340;0,2335;56,35159879;37,51983319;4,59000015;
19:02:45:074;-0,0804;-0,0340;0,2335;56,35159879;37,51983319;4,59000015;
19:02:45:093;-0,0804;-0,0340;0,2335;56,35159879;37,51983319;4,59000015;
19:02:45:114;-0,0804;-0,0340;0,2335;56,35159879;37,51983319;4,59000015;
19:02:45:115;-0,0804;-0,0340;0,2335;56,35159879;37,51983319;4,59000015;
19:02:45:116;0,0935;-0,0117;0,1155;56,35159879;37,51983319;4,59000015;
19:02:45:134;0,0935;-0,0117;0,1155;56,35159879;37,51983319;4,59000015;
19:02:45:155;0,0935;-0,0117;0,1155;56,35159879;37,51983319;4,59000015;
19:02:45:175;0,0935;-0,0117;0,1155;56,35159879;37,51983319;4,59000015;
19:02:45:177;0,0935;-0,0117;0,1155;56,35159879;37,51983319;4,59000015;
19:02:45:179;0,1297;-0,0329;0,1357;56,35159879;37,51983319;4,59000015;
19:02:45:194;0,1297;-0,0329;0,1357;56,35159879;37,51983319;4,59000015;
19:02:45:214;0,1297;-0,0329;0,1357;56,35159879;37,51983319;4,59000015;
19:02:45:264;0,1297;-0,0329;0,1357;56,35159879;37,51983319;4,59000015;
19:02:45:266;0,0601;-0,0425;-0,2282;56,35159879;37,51983319;4,59000015;
19:02:45:307;0,0699;-0,0351;-0,2251;56,35159879;37,51983319;4,59000015;
19:02:45:309;0,0699;-0,0351;-0,2251;56,35159879;37,51983319;4,59000015;
19:02:45:311;0,0699;-0,0351;-0,2251;56,35159879;37,51983319;4,59000015;
19:02:45:365;0,0699;-0,0351;-0,2251;56,35159879;37,51983319;4,59000015;
19:02:45:367;0,0699;-0,0351;-0,2251;56,35159879;37,51983319;4,59000015;
19:02:45:367;0,0905;-0,0577;-0,1109;56,35159879;37,51983319;4,59000015;
19:02:45:428;-0,1286;-0,0127;0,0553;56,35159879;37,51983319;4,59000015;
19:02:45:432;-0,1286;-0,0127;0,0553;56,35159879;37,51983319;4,59000015;
19:02:45:434;-0,1286;-0,0127;0,0553;56,35159879;37,51983319;4,59000015;
19:02:45:487;-0,1286;-0,0127;0,0553;56,35159879;37,51983319;4,59000015;
19:02:45:491;-0,1286;-0,0127;0,0553;56,35159879;37,51983319;4,59000015;
19:02:45:493;-0,1428;-0,0740;0,0913;56,35159879;37,51983319;4,59000015;
19:02:45:547;-0,1428;-0,0740;0,0913;56,35159879;37,51983319;4,59000015;
19:02:45:551;-0,1428;-0,0740;0,0913;56,35159879;37,51983319;4,59000015;
19:02:45:553;-0,0918;0,0005;-0,0500;56,35159879;37,51983319;4,59000015;
19:02:45:628;-0,0918;0,0005;-0,0500;56,35159879;37,51983319;4,59000015;
19:02:45:632;-0,0918;0,0005;-0,0500;56,35159879;37,51983319;4,59000015;
19:02:45:634;0,0773;-0,0660;0,0164;56,35159879;37,51983319;4,59000015;
19:02:45:689;0,0773;-0,0660;0,0164;56,35159879;37,51983319;4,59000015;
19:02:45:692;0,0773;-0,0660;0,0164;56,35159879;37,51983319;4,59000015;
19:02:45:694;0,0498;-0,0067;0,1262;56,35159879;37,51983319;4,59000015;
19:02:45:748;0,0498;-0,0067;0,1262;56,35159879;37,51983319;4,59000015;
19:02:45:754;0,0150;-0,0433;0,0172;56,35159879;37,51983319;4,59000015;
19:02:45:757;0,0150;-0,0433;0,0172;56,35159879;37,51983319;4,59000015;
19:02:45:807;0,0150;-0,0433;0,0172;56,35159879;37,51983319;4,59000015;
19:02:45:809;0,0150;-0,0433;0,0172;56,35162335;37,51974319;5,26000023;
19:02:45:811;0,0251;-0,1668;0,0159;56,35162335;37,51974319;5,26000023;
19:02:45:831;0,0251;-0,1668;0,0159;56,35162335;37,51974319;5,26000023;
19:02:45:888;0,0251;-0,1668;0,0159;56,35162335;37,51974319;5,26000023;
19:02:45:890;0,0251;-0,1668;0,0159;56,35162335;37,51974319;5,26000023;
19:02:45:891;-0,0505;-0,1919;0,1636;56,35162335;37,51974319;5,26000023;
19:02:45:950;-0,0505;-0,1919;0,1636;56,35162335;37,51974319;5,26000023;
19:02:45:953;-0,0505;-0,1919;0,1636;56,35162335;37,51974319;5,26000023;
19:02:45:955;-0,1235;-0,3337;0,0057;56,35162335;37,51974319;5,26000023;
19:02:46:010;-0,1235;-0,3337;0,0057;56,35162335;37,51974319;5,26000023;
19:02:46:013;-0,1235;-0,3337;0,0057;56,35162335;37,51974319;5,26000023;
19:02:46:015;-0,0684;-0,5272;-0,2438;56,35162335;37,51974319;5,26000023;
19:02:46:070;-0,0684;-0,5272;-0,2438;56,35162335;37,51974319;5,26000023;
19:02:46:074;-0,0684;-0,5272;-0,2438;56,35162335;37,51974319;5,26000023;
19:02:46:076;0,1164;-0,5391;-0,0172;56,35162335;37,51974319;5,26000023;
19:02:46:093;0,1056;-0,5311;-0,0166;56,35162335;37,51974319;5,26000023;
19:02:46:097;0,1056;-0,5311;-0,0166;56,35162335;37,51974319;5,26000023;
19:02:46:152;0,1056;-0,5311;-0,0166;56,35162335;37,51974319;5,26000023;
19:02:46:154;0,1056;-0,5311;-0,0166;56,35162335;37,51974319;5,26000023;
19:02:46:156;0,0224;-0,6165;0,0090;56,35162335;37,51974319;5,26000023;
19:02:46:211;0,0224;-0,6165;0,0090;56,35162335;37,51974319;5,26000023;
19:02:46:214;0,0224;-0,6165;0,0090;56,35162335;37,51974319;5,26000023;
19:02:46:216;0,0150;-0,6148;0,1758;56,35162335;37,51974319;5,26000023;
19:02:46:271;0,0150;-0,6148;0,1758;56,35162335;37,51974319;5,26000023;
19:02:46:275;0,0150;-0,6148;0,1758;56,35162335;37,51974319;5,26000023;
19:02:46:277;0,0972;-0,5292;0,1686;56,35162335;37,51974319;5,26000023;
19:02:46:332;0,0972;-0,5292;0,1686;56,35162335;37,51974319;5,26000023;
19:02:46:335;0,0972;-0,5292;0,1686;56,35162335;37,51974319;5,26000023;
19:02:46:336;0,0955;-0,5306;-0,0140;56,35162335;37,51974319;5,26000023;
19:02:46:412;0,0955;-0,5306;-0,0140;56,35162335;37,51974319;5,26000023;
19:02:46:415;0,0238;-0,4626;0,0576;56,35162335;37,51974319;5,26000023;
19:02:46:417;0,0238;-0,4626;0,0576;56,35162335;37,51974319;5,26000023;
19:02:46:471;0,0238;-0,4626;0,0576;56,35162335;37,51974319;5,26000023;
19:02:46:473;-0,0722;-0,4443;0,1268;56,35162335;37,51974319;5,26000023;
19:02:46:475;-0,0722;-0,4443;0,1268;56,35162335;37,51974319;5,26000023;
19:02:46:533;-0,0722;-0,4443;0,1268;56,35162335;37,51974319;5,26000023;
19:02:46:536;-0,0722;-0,4443;0,1268;56,35162335;37,51974319;5,26000023;
19:02:46:538;0,0162;-0,3684;-0,0030;56,35162335;37,51974319;5,26000023;
19:02:46:593;0,0162;-0,3684;-0,0030;56,35162335;37,51974319;5,26000023;
19:02:46:596;0,0162;-0,3684;-0,0030;56,35162335;37,51974319;5,26000023;
19:02:46:598;0,0196;-0,3359;0,0963;56,35162335;37,51974319;5,26000023;
19:02:46:620;0,0196;-0,3359;0,0963;56,35162335;37,51974319;5,26000023;
19:02:46:674;0,0196;-0,3359;0,0963;56,35162335;37,51974319;5,26000023;
19:02:46:677;-0,0480;-0,3476;-0,0043;56,35162335;37,51974319;5,26000023;
19:02:46:680;-0,0480;-0,3476;-0,0043;56,35162335;37,51974319;5,26000023;
19:02:46:734;-0,0480;-0,3476;-0,0043;56,35162335;37,51974319;5,26000023;
19:02:46:738;-0,0480;-0,3476;-0,0043;56,35162335;37,51974319;5,26000023;
19:02:46:740;-0,0025;-0,3111;-0,1310;56,35162335;37,51974319;5,26000023;
19:02:46:795;-0,0025;-0,3111;-0,1310;56,35162335;37,51974319;5,26000023;
19:02:46:797;-0,0025;-0,3111;-0,1310;56,35162335;37,51974319;5,26000023;
19:02:46:799;0,1672;-0,2639;-0,1867;56,35162335;37,51974319;5,26000023;
19:02:46:853;0,1672;-0,2639;-0,1867;56,35162335;37,51974319;5,26000023;
19:02:46:855;0,1672;-0,2639;-0,1867;56,35164369;37,51969515;5,44999981;
19:02:46:857;0,0363;-0,3483;0,1427;56,35164369;37,51969515;5,44999981;
19:02:46:877;0,0363;-0,3483;0,1427;56,35164369;37,51969515;5,44999981;
19:02:46:880;0,0361;-0,3428;0,1403;56,35164369;37,51969515;5,44999981;
19:02:46:934;0,0361;-0,3428;0,1403;56,35164369;37,51969515;5,44999981;
19:02:46:936;0,0361;-0,3428;0,1403;56,35164369;37,51969515;5,44999981;
19:02:46:937;-0,0920;-0,3127;0,1469;56,35164369;37,51969515;5,44999981;
19:02:46:996;-0,0387;-0,2854;0,2029;56,35164369;37,51969515;5,44999981;
19:02:46:999;-0,0387;-0,2854;0,2029;56,35164369;37,51969515;5,44999981;
19:02:47:001;-0,0387;-0,2854;0,2029;56,35164369;37,51969515;5,44999981;
19:02:47:054;-0,0387;-0,2854;0,2029;56,35164369;37,51969515;5,44999981;
19:02:47:056;-0,0387;-0,2854;0,2029;56,35164369;37,51969515;5,44999981;
19:02:47:057;-0,0117;-0,2828;-0,0587;56,35164369;37,51969515;5,44999981;
19:02:47:116;-0,0117;-0,2828;-0,0587;56,35164369;37,51969515;5,44999981;
19:02:47:118;-0,0117;-0,2828;-0,0587;56,35164369;37,51969515;5,44999981;
19:02:47:120;0,0667;-0,3038;-0,1779;56,35164369;37,51969515;5,44999981;
19:02:47:196;0,0667;-0,3038;-0,1779;56,35164369;37,51969515;5,44999981;
19:02:47:199;0,0667;-0,3038;-0,1779;56,35164369;37,51969515;5,44999981;
19:02:47:201;-0,0325;-0,2798;-0,0005;56,35164369;37,51969515;5,44999981;
19:02:47:256;-0,0325;-0,2798;-0,0005;56,35164369;37,51969515;5,44999981;
19:02:47:259;-0,0043;-0,2717;0,1023;56,35164369;37,51969515;5,44999981;
19:02:47:262;-0,0043;-0,2717;0,1023;56,35164369;37,51969515;5,44999981;
19:02:47:315;-0,0043;-0,2717;0,1023;56,35164369;37,51969515;5,44999981;
19:02:47:317;-0,0043;-0,2717;0,1023;56,35164369;37,51969515;5,44999981;
19:02:47:319;-0,0355;-0,2458;0,2155;56,35164369;37,51969515;5,44999981;
19:02:47:377;-0,0355;-0,2458;0,2155;56,35164369;37,51969515;5,44999981;
19:02:47:380;-0,0355;-0,2458;0,2155;56,35164369;37,51969515;5,44999981;
19:02:47:383;-0,0048;-0,2603;0,1025;56,35164369;37,51969515;5,44999981;
19:02:47:401;-0,0048;-0,2603;0,1025;56,35164369;37,51969515;5,44999981;
19:02:47:457;-0,0048;-0,2603;0,1025;56,35164369;37,51969515;5,44999981;
19:02:47:459;-0,0048;-0,2603;0,1025;56,35164369;37,51969515;5,44999981;
19:02:47:461;-0,0695;-0,2431;-0,1284;56,35164369;37,51969515;5,44999981;
19:02:47:518;-0,0695;-0,2431;-0,1284;56,35164369;37,51969515;5,44999981;
19:02:47:522;-0,0695;-0,2431;-0,1284;56,35164369;37,51969515;5,44999981;
19:02:47:524;0,0593;-0,1583;-0,2279;56,35164369;37,51969515;5,44999981;
19:02:47:579;0,0192;-0,2131;-0,1637;56,35164369;37,51969515;5,44999981;
19:02:47:582;0,0192;-0,2131;-0,1637;56,35164369;37,51969515;5,44999981;
19:02:47:584;0,0192;-0,2131;-0,1637;56,35164369;37,51969515;5,44999981;
19:02:47:638;0,0192;-0,2131;-0,1637;56,35164369;37,51969515;5,44999981;
19:02:47:646;0,0394;-0,2158;0,0524;56,35164369;37,51969515;5,44999981;
19:02:47:647;0,0394;-0,2158;0,0524;56,35164369;37,51969515;5,44999981;
19:02:47:663;0,0394;-0,2158;0,0524;56,35164369;37,51969515;5,44999981;
19:02:47:665;0,0429;-0,2107;0,0514;56,35164369;37,51969515;5,44999981;
19:02:47:718;0,0429;-0,2107;0,0514;56,35164369;37,51969515;5,44999981;
19:02:47:720;0,0429;-0,2107;0,0514;56,35164369;37,51969515;5,44999981;
19:02:47:722;-0,0257;-0,1803;0,1975;56,35164369;37,51969515;5,44999981;
19:02:47:778;-0,0257;-0,1803;0,1975;56,35164369;37,51969515;5,44999981;
19:02:47:780;-0,0257;-0,1803;0,1975;56,35164369;37,51969515;5,44999981;
19:02:47:782;0,0300;-0,1518;-0,0356;56,35164369;37,51969515;5,44999981;
19:02:47:838;0,0300;-0,1518;-0,0356;56,35164369;37,51969515;5,44999981;
19:02:47:839;0,0300;-0,1518;-0,0356;56,35166748;37,51964962;5,17000008;
19:02:47:841;0,0953;-0,2136;0,0505;56,35166748;37,51964962;5,17000008;
19:02:47:899;0,0953;-0,2136;0,0505;56,35166748;37,51964962;5,17000008;
19:02:47:901;0,0953;-0,2136;0,0505;56,35166748;37,51964962;5,17000008;
19:02:47:902;-0,0845;-0,1537;0,1233;56,35166748;37,51964962;5,17000008;
19:02:47:979;-0,0845;-0,1537;0,1233;56,35166748;37,51964962;5,17000008;
19:02:47:980;-0,0325;-0,1347;-0,1802;56,35166748;37,51964962;5,17000008;
19:02:47:982;-0,0325;-0,1347;-0,1802;56,35166748;37,51964962;5,17000008;
19:02:48:040;-0,0325;-0,1347;-0,1802;56,35166748;37,51964962;5,17000008;
19:02:48:042;-0,0325;-0,1347;-0,1802;56,35166748;37,51964962;5,17000008;
19:02:48:044;-0,0757;-0,1303;0,0563;56,35166748;37,51964962;5,17000008;
19:02:48:101;-0,0757;-0,1303;0,0563;56,35166748;37,51964962;5,17000008;
19:02:48:104;-0,0757;-0,1303;0,0563;56,35166748;37,51964962;5,17000008;
19:02:48:106;0,0044;-0,1485;-0,0129;56,35166748;37,51964962;5,17000008;
19:02:48:161;0,1153;-0,1221;0,0507;56,35166748;37,51964962;5,17000008;
19:02:48:163;0,1153;-0,1221;0,0507;56,35166748;37,51964962;5,17000008;
19:02:48:164;0,1153;-0,1221;0,0507;56,35166748;37,51964962;5,17000008;
19:02:48:184;0,1153;-0,1221;0,0507;56,35166748;37,51964962;5,17000008;
19:02:48:240;0,1153;-0,1221;0,0507;56,35166748;37,51964962;5,17000008;
19:02:48:242;0,1153;-0,1221;0,0507;56,35166748;37,51964962;5,17000008;
19:02:48:243;-0,0274;-0,1541;0,0543;56,35166748;37,51964962;5,17000008;
19:02:48:301;-0,0274;-0,1541;0,0543;56,35166748;37,51964962;5,17000008;
19:02:48:302;-0,0274;-0,1541;0,0543;56,35166748;37,51964962;5,17000008;
19:02:48:303;-0,0183;-0,1993;-0,2696;56,35166748;37,51964962;5,17000008;
19:02:48:362;-0,0183;-0,1993;-0,2696;56,35166748;37,51964962;5,17000008;
19:02:48:363;-0,0183;-0,1993;-0,2696;56,35166748;37,51964962;5,17000008;
19:02:48:365;0,0343;-0,3450;-0,0735;56,35166748;37,51964962;5,17000008;
19:02:48:422;0,0343;-0,3450;-0,0735;56,35166748;37,51964962;5,17000008;
19:02:48:424;0,0343;-0,3450;-0,0735;56,35166748;37,51964962;5,17000008;
19:02:48:425;0,0528;-0,3923;0,0732;56,35166748;37,51964962;5,17000008;
19:02:48:447;0,0528;-0,3923;0,0732;56,35166748;37,51964962;5,17000008;
19:02:48:449;0,0537;-0,3781;0,0720;56,35166748;37,51964962;5,17000008;
19:02:48:503;0,0537;-0,3781;0,0720;56,35166748;37,51964962;5,17000008;
19:02:48:506;0,0537;-0,3781;0,0720;56,35166748;37,51964962;5,17000008;
19:02:48:510;-0,0629;-0,3954;0,0880;56,35166748;37,51964962;5,17000008;
19:02:48:563;-0,0629;-0,3954;0,0880;56,35166748;37,51964962;5,17000008;
19:02:48:567;-0,0189;-0,3650;0,0530;56,35166748;37,51964962;5,17000008;
19:02:48:570;-0,0189;-0,3650;0,0530;56,35166748;37,51964962;5,17000008;
19:02:48:624;-0,0189;-0,3650;0,0530;56,35166748;37,51964962;5,17000008;
19:02:48:627;-0,0189;-0,3650;0,0530;56,35166748;37,51964962;5,17000008;
19:02:48:629;0,0750;-0,3341;0,1215;56,35166748;37,51964962;5,17000008;
19:02:48:683;0,0750;-0,3341;0,1215;56,35166748;37,51964962;5,17000008;
19:02:48:685;0,0750;-0,3341;0,1215;56,35166748;37,51964962;5,17000008;
19:02:48:687;0,0200;-0,2612;-0,1615;56,35166748;37,51964962;5,17000008;
19:02:48:763;0,0200;-0,2612;-0,1615;56,35166748;37,51964962;5,17000008;
19:02:48:765;-0,0225;-0,2433;-0,0018;56,35166748;37,51964962;5,17000008;
19:02:48:766;-0,0225;-0,2433;-0,0018;56,35166748;37,51964962;5,17000008;
19:02:48:829;-0,0225;-0,2433;-0,0018;56,35166748;37,51964962;5,17000008;
19:02:48:830;-0,0225;-0,2433;-0,0018;56,35168431;37,51959993;4,78999996;
19:02:48:832;-0,0398;-0,2364;0,0657;56,35168431;37,51959993;4,78999996;
19:02:48:884;-0,0398;-0,2364;0,0657;56,35168431;37,51959993;4,78999996;
19:02:48:885;-0,0398;-0,2364;0,0657;56,35168431;37,51959993;4,78999996;
19:02:48:886;0,0237;-0,2489;0,1066;56,35168431;37,51959993;4,78999996;
19:02:48:944;0,0237;-0,2489;0,1066;56,35168431;37,51959993;4,78999996;
19:02:48:945;0,0237;-0,2489;0,1066;56,35168431;37,51959993;4,78999996;
19:02:48:946;-0,0304;-0,2060;-0,0653;56,35168431;37,51959993;4,78999996;
19:02:48:970;-0,0304;-0,2060;-0,0653;56,35168431;37,51959993;4,78999996;
19:02:49:026;0,0899;-0,1324;-0,0886;56,35168431;37,51959993;4,78999996;
19:02:49:031;0,0899;-0,1324;-0,0886;56,35168431;37,51959993;4,78999996;
19:02:49:034;0,0899;-0,1324;-0,0886;56,35168431;37,51959993;4,78999996;
19:02:49:085;0,0899;-0,1324;-0,0886;56,35168431;37,51959993;4,78999996;
19:02:49:086;0,0899;-0,1324;-0,0886;56,35168431;37,51959993;4,78999996;
19:02:49:087;0,0220;-0,1607;0,0711;56,35168431;37,51959993;4,78999996;
19:02:49:146;0,0220;-0,1607;0,0711;56,35168431;37,51959993;4,78999996;
19:02:49:150;0,0220;-0,1607;0,0711;56,35168431;37,51959993;4,78999996;
19:02:49:152;-0,0201;-0,1368;0,0335;56,35168431;37,51959993;4,78999996;
19:02:49:206;-0,0201;-0,1368;0,0335;56,35168431;37,51959993;4,78999996;
19:02:49:209;-0,0201;-0,1368;0,0335;56,35168431;37,51959993;4,78999996;
19:02:49:211;0,0368;-0,0685;-0,1691;56,35168431;37,51959993;4,78999996;
19:02:49:234;0,0368;-0,0685;-0,1691;56,35168431;37,51959993;4,78999996;
19:02:49:236;0,0377;-0,0602;-0,1504;56,35168431;37,51959993;4,78999996;
19:02:49:285;0,0377;-0,0602;-0,1504;56,35168431;37,51959993;4,78999996;
19:02:49:287;0,0033;-0,0954;-0,0656;56,35168431;37,51959993;4,78999996;
19:02:49:289;0,0033;-0,0954;-0,0656;56,35168431;37,51959993;4,78999996;
19:02:49:348;0,0033;-0,0954;-0,0656;56,35168431;37,51959993;4,78999996;
19:02:49:350;0,0033;-0,0954;-0,0656;56,35168431;37,51959993;4,78999996;
19:02:49:353;-0,0571;-0,1266;0,0102;56,35168431;37,51959993;4,78999996;
19:02:49:406;-0,0571;-0,1266;0,0102;56,35168431;37,51959993;4,78999996;
19:02:49:408;-0,0571;-0,1266;0,0102;56,35168431;37,51959993;4,78999996;
19:02:49:409;-0,0837;-0,0673;0,1206;56,35168431;37,51959993;4,78999996;
19:02:49:469;-0,0837;-0,0673;0,1206;56,35168431;37,51959993;4,78999996;
19:02:49:473;-0,0837;-0,0673;0,1206;56,35168431;37,51959993;4,78999996;
19:02:49:476;0,0012;-0,0436;0,0951;56,35168431;37,51959993;4,78999996;
19:02:49:549;0,0012;-0,0436;0,0951;56,35168431;37,51959993;4,78999996;
19:02:49:552;0,0012;-0,0436;0,0951;56,35168431;37,51959993;4,78999996;
19:02:49:554;0,0774;-0,0375;-0,0720;56,35168431;37,51959993;4,78999996;
19:02:49:608;0,0774;-0,0375;-0,0720;56,35168431;37,51959993;4,78999996;
19:02:49:610;0,0774;-0,0375;-0,0720;56,35168431;37,51959993;4,78999996;
19:02:49:611;-0,0124;-0,0547;-0,1403;56,35168431;37,51959993;4,78999996;
19:02:49:669;-0,0124;-0,0547;-0,1403;56,35168431;37,51959993;4,78999996;
19:02:49:672;-0,0124;-0,0547;-0,1403;56,35168431;37,51959993;4,78999996;
19:02:49:674;0,0382;-0,0499;-0,0997;56,35168431;37,51959993;4,78999996;
19:02:49:730;0,0382;-0,0499;-0,0997;56,35168431;37,51959993;4,78999996;
19:02:49:732;0,0382;-0,0499;-0,0997;56,35168431;37,51959993;4,78999996;
19:02:49:734;0,0181;-0,0637;0,1426;56,35168431;37,51959993;4,78999996;
19:02:49:747;0,0181;-0,0637;0,1426;56,35168431;37,51959993;4,78999996;
19:02:49:810;0,0478;-0,1099;0,1750;56,35168431;37,51959993;4,78999996;
19:02:49:812;0,0478;-0,1099;0,1750;56,35169607;37,51953429;4,28999996;
19:02:49:814;0,0478;-0,1099;0,1750;56,35169607;37,51953429;4,28999996;
19:02:49:869;0,0478;-0,1099;0,1750;56,35169607;37,51953429;4,28999996;
19:02:49:871;0,0478;-0,1099;0,1750;56,35169607;37,51953429;4,28999996;
19:02:49:873;-0,0221;-0,1209;0,1023;56,35169607;37,51953429;4,28999996;
19:02:49:930;-0,0221;-0,1209;0,1023;56,35169607;37,51953429;4,28999996;
19:02:49:932;-0,0221;-0,1209;0,1023;56,35169607;37,51953429;4,28999996;
19:02:49:934;-0,0613;-0,1465;-0,0717;56,35169607;37,51953429;4,28999996;
19:02:49:991;-0,0613;-0,1465;-0,0717;56,35169607;37,51953429;4,28999996;
19:02:49:994;-0,0613;-0,1465;-0,0717;56,35169607;37,51953429;4,28999996;
19:02:49:996;0,0133;-0,1655;-0,0649;56,35169607;37,51953429;4,28999996;
19:02:50:020;0,0133;-0,1655;-0,0649;56,35169607;37,51953429;4,28999996;
19:02:50:023;0,0117;-0,1532;-0,0580;56,35169607;37,51953429;4,28999996;
19:02:50:071;0,0117;-0,1532;-0,0580;56,35169607;37,51953429;4,28999996;
19:02:50:074;0,0117;-0,1532;-0,0580;56,35169607;37,51953429;4,28999996;
19:02:50:076;0,0439;-0,2061;0,0323;56,35169607;37,51953429;4,28999996;
19:02:50:131;0,0439;-0,2061;0,0323;56,35169607;37,51953429;4,28999996;
19:02:50:133;0,0439;-0,2061;0,0323;56,35169607;37,51953429;4,28999996;
19:02:50:134;0,0428;-0,2085;0,0651;56,35169607;37,51953429;4,28999996;
19:02:50:192;0,0428;-0,2085;0,0651;56,35169607;37,51953429;4,28999996;
19:02:50:194;0,0428;-0,2085;0,0651;56,35169607;37,51953429;4,28999996;
19:02:50:196;0,0842;-0,2063;-0,0612;56,35169607;37,51953429;4,28999996;
19:02:50:253;0,0842;-0,2063;-0,0612;56,35169607;37,51953429;4,28999996;
19:02:50:256;0,0842;-0,2063;-0,0612;56,35169607;37,51953429;4,28999996;
19:02:50:258;-0,0247;-0,2876;0,0002;56,35169607;37,51953429;4,28999996;
19:02:50:332;-0,0247;-0,2876;0,0002;56,35169607;37,51953429;4,28999996;
19:02:50:333;-0,0247;-0,2876;0,0002;56,35169607;37,51953429;4,28999996;
19:02:50:335;0,0402;-0,4556;0,0840;56,35169607;37,51953429;4,28999996;
19:02:50:393;0,0402;-0,4556;0,0840;56,35169607;37,51953429;4,28999996;
19:02:50:395;0,0402;-0,4556;0,0840;56,35169607;37,51953429;4,28999996;
19:02:50:397;0,0699;-0,5295;0,0759;56,35169607;37,51953429;4,28999996;
19:02:50:454;0,0699;-0,5295;0,0759;56,35169607;37,51953429;4,28999996;
19:02:50:456;0,0699;-0,5295;0,0759;56,35169607;37,51953429;4,28999996;
19:02:50:458;0,0735;-0,6821;-0,0231;56,35169607;37,51953429;4,28999996;
19:02:50:513;0,0735;-0,6821;-0,0231;56,35169607;37,51953429;4,28999996;
19:02:50:516;0,0735;-0,6821;-0,0231;56,35169607;37,51953429;4,28999996;
19:02:50:518;-0,0160;-0,7839;-0,0687;56,35169607;37,51953429;4,28999996;
19:02:50:538;-0,0160;-0,7839;-0,0687;56,35169607;37,51953429;4,28999996;
19:02:50:594;-0,0160;-0,7839;-0,0687;56,35169607;37,51953429;4,28999996;
19:02:50:596;-0,0160;-0,7839;-0,0687;56,35169607;37,51953429;4,28999996;
19:02:50:598;0,0557;-0,8461;0,0792;56,35169607;37,51953429;4,28999996;
19:02:50:655;0,0557;-0,8461;0,0792;56,35169607;37,51953429;4,28999996;
19:02:50:658;0,0557;-0,8461;0,0792;56,35169607;37,51953429;4,28999996;
19:02:50:660;0,0634;-0,8718;0,0695;56,35169607;37,51953429;4,28999996;
19:02:50:714;0,0634;-0,8718;0,0695;56,35169607;37,51953429;4,28999996;
19:02:50:715;0,0906;-0,7684;0,0997;56,35169607;37,51953429;4,28999996;
19:02:50:717;0,0906;-0,7684;0,0997;56,35169607;37,51953429;4,28999996;
19:02:50:763;0,0906;-0,7684;0,0997;56,35169607;37,51953429;4,28999996;
19:02:50:768;0,0273;-0,6715;-0,0651;56,35169607;37,51953429;4,28999996;
19:02:50:801;0,0279;-0,5963;-0,0579;56,35169607;37,51953429;4,28999996;
19:02:50:803;0,0279;-0,5963;-0,0579;56,35170961;37,51948105;3,46000004;
19:02:50:805;0,0279;-0,5963;-0,0579;56,35170961;37,51948105;3,46000004;
19:02:50:854;0,0279;-0,5963;-0,0579;56,35170961;37,51948105;3,46000004;
19:02:50:856;0,0533;-0,4835;0,0097;56,35170961;37,51948105;3,46000004;
19:02:50:859;0,0533;-0,4835;0,0097;56,35170961;37,51948105;3,46000004;
19:02:50:915;0,0533;-0,4835;0,0097;56,35170961;37,51948105;3,46000004;
19:02:50:917;-0,0445;-0,4400;0,0651;56,35170961;37,51948105;3,46000004;
19:02:50:919;-0,0445;-0,4400;0,0651;56,35170961;37,51948105;3,46000004;
19:02:50:976;-0,0445;-0,4400;0,0651;56,35170961;37,51948105;3,46000004;
19:02:50:979;-0,0445;-0,4400;0,0651;56,35170961;37,51948105;3,46000004;
19:02:50:980;0,0076;-0,4698;0,1580;56,35170961;37,51948105;3,46000004;
19:02:51:035;0,0076;-0,4698;0,1580;56,35170961;37,51948105;3,46000004;
19:02:51:037;0,0076;-0,4698;0,1580;56,35170961;37,51948105;3,46000004;
19:02:51:038;0,0531;-0,4379;0,0895;56,35170961;37,51948105;3,46000004;
19:02:51:117;0,0531;-0,4379;0,0895;56,35170961;37,51948105;3,46000004;
19:02:51:120;0,0531;-0,4379;0,0895;56,35170961;37,51948105;3,46000004;
19:02:51:122;-0,0512;-0,4079;0,0130;56,35170961;37,51948105;3,46000004;
19:02:51:176;-0,0512;-0,4079;0,0130;56,35170961;37,51948105;3,46000004;
19:02:51:178;-0,0512;-0,4079;0,0130;56,35170961;37,51948105;3,46000004;
19:02:51:179;0,0508;-0,4090;-0,0496;56,35170961;37,51948105;3,46000004;
19:02:51:238;0,0508;-0,4090;-0,0496;56,35170961;37,51948105;3,46000004;
19:02:51:241;0,0508;-0,4090;-0,0496;56,35170961;37,51948105;3,46000004;
19:02:51:243;0,0511;-0,3378;0,0033;56,35170961;37,51948105;3,46000004;
19:02:51:276;0,0511;-0,3378;0,0033;56,35170961;37,51948105;3,46000004;
19:02:51:279;0,0511;-0,3378;0,0033;56,35170961;37,51948105;3,46000004;
19:02:51:284;0,0428;-0,3000;0,0030;56,35170961;37,51948105;3,46000004;
19:02:51:323;0,0428;-0,3000;0,0030;56,35170961;37,51948105;3,46000004;
19:02:51:378;0,0428;-0,3000;0,0030;56,35170961;37,51948105;3,46000004;
19:02:51:382;0,0428;-0,3000;0,0030;56,35170961;37,51948105;3,46000004;
19:02:51:384;0,0963;-0,2950;0,0190;56,35170961;37,51948105;3,46000004;
19:02:51:437;0,0963;-0,2950;0,0190;56,35170961;37,51948105;3,46000004;
19:02:51:439;0,0963;-0,2950;0,0190;56,35170961;37,51948105;3,46000004;
19:02:51:440;-0,0152;-0,2532;0,0132;56,35170961;37,51948105;3,46000004;
19:02:51:497;-0,0152;-0,2532;0,0132;56,35170961;37,51948105;3,46000004;
19:02:51:499;-0,0270;-0,1245;0,0214;56,35170961;37,51948105;3,46000004;
19:02:51:502;-0,0270;-0,1245;0,0214;56,35170961;37,51948105;3,46000004;
19:02:51:558;-0,0270;-0,1245;0,0214;56,35170961;37,51948105;3,46000004;
19:02:51:561;-0,1268;0,1067;-0,0272;56,35170961;37,51948105;3,46000004;
19:02:51:563;-0,1268;0,1067;-0,0272;56,35170961;37,51948105;3,46000004;
19:02:51:584;-0,1268;0,1067;-0,0272;56,35170961;37,51948105;3,46000004;
19:02:51:586;-0,1259;0,1012;-0,0273;56,35170961;37,51948105;3,46000004;
19:02:51:638;-0,1259;0,1012;-0,0273;56,35170961;37,51948105;3,46000004;
19:02:51:640;-0,1259;0,1012;-0,0273;56,35170961;37,51948105;3,46000004;
19:02:51:643;-0,0346;0,1721;-0,0984;56,35170961;37,51948105;3,46000004;
19:02:51:700;-0,0346;0,1721;-0,0984;56,35170961;37,51948105;3,46000004;
19:02:51:702;-0,0346;0,1721;-0,0984;56,35170961;37,51948105;3,46000004;
19:02:51:703;0,0236;0,1751;-0,1272;56,35170961;37,51948105;3,46000004;
19:02:51:759;0,0236;0,1751;-0,1272;56,35170961;37,51948105;3,46000004;
19:02:51:761;0,0236;0,1751;-0,1272;56,35170961;37,51948105;3,46000004;
19:02:51:762;0,0758;0,3266;0,0665;56,35170961;37,51948105;3,46000004;
19:02:51:841;0,0758;0,3266;0,0665;56,35170961;37,51948105;3,46000004;
19:02:51:843;0,0758;0,3266;0,0665;56,35171351;37,51943729;1,99000001;
19:02:51:844;0,0036;0,4976;0,0289;56,35171351;37,51943729;1,99000001;
19:02:51:900;0,0036;0,4976;0,0289;56,35171351;37,51943729;1,99000001;
19:02:51:902;0,0036;0,4976;0,0289;56,35171351;37,51943729;1,99000001;
19:02:51:903;-0,0483;0,5375;-0,0773;56,35171351;37,51943729;1,99000001;
19:02:51:960;-0,0483;0,5375;-0,0773;56,35171351;37,51943729;1,99000001;
19:02:51:962;-0,0483;0,5375;-0,0773;56,35171351;37,51943729;1,99000001;
19:02:51:964;-0,0994;0,5114;-0,0199;56,35171351;37,51943729;1,99000001;
19:02:52:020;-0,0994;0,5114;-0,0199;56,35171351;37,51943729;1,99000001;
19:02:52:023;-0,0406;0,4772;-0,0452;56,35171351;37,51943729;1,99000001;
19:02:52:026;-0,0406;0,4772;-0,0452;56,35171351;37,51943729;1,99000001;
19:02:52:081;-0,0406;0,4772;-0,0452;56,35171351;37,51943729;1,99000001;
19:02:52:084;-0,0406;0,4772;-0,0452;56,35171351;37,51943729;1,99000001;
19:02:52:086;0,0101;0,5214;-0,0447;56,35171351;37,51943729;1,99000001;
19:02:52:105;0,0101;0,5214;-0,0447;56,35171351;37,51943729;1,99000001;
19:02:52:162;0,0101;0,5214;-0,0447;56,35171351;37,51943729;1,99000001;
19:02:52:165;0,0101;0,5214;-0,0447;56,35171351;37,51943729;1,99000001;
19:02:52:167;0,0086;0,4645;0,0124;56,35171351;37,51943729;1,99000001;
19:02:52:221;0,0086;0,4645;0,0124;56,35171351;37,51943729;1,99000001;
19:02:52:224;0,0246;0,3738;0,0536;56,35171351;37,51943729;1,99000001;
19:02:52:227;0,0246;0,3738;0,0536;56,35171351;37,51943729;1,99000001;
19:02:52:282;0,0246;0,3738;0,0536;56,35171351;37,51943729;1,99000001;
19:02:52:285;0,0246;0,3738;0,0536;56,35171351;37,51943729;1,99000001;
19:02:52:286;-0,0282;0,3759;0,0070;56,35171351;37,51943729;1,99000001;
19:02:52:304;-0,0282;0,3759;0,0070;56,35171351;37,51943729;1,99000001;
19:02:52:306;-0,0248;0,3355;0,0064;56,35171351;37,51943729;1,99000001;
19:02:52:353;-0,0248;0,3355;0,0064;56,35171351;37,51943729;1,99000001;
19:02:52:355;-0,0248;0,3355;0,0064;56,35171351;37,51943729;1,99000001;
19:02:52:357;-0,0327;0,3571;-0,0178;56,35171351;37,51943729;1,99000001;
19:02:52:423;-0,0327;0,3571;-0,0178;56,35171351;37,51943729;1,99000001;
19:02:52:425;-0,0177;0,3033;-0,0219;56,35171351;37,51943729;1,99000001;
19:02:52:428;-0,0177;0,3033;-0,0219;56,35171351;37,51943729;1,99000001;
19:02:52:483;-0,0177;0,3033;-0,0219;56,35171351;37,51943729;1,99000001;
19:02:52:486;-0,0177;0,3033;-0,0219;56,35171351;37,51943729;1,99000001;
19:02:52:487;0,0161;0,2787;-0,0430;56,35171351;37,51943729;1,99000001;
19:02:52:544;0,0161;0,2787;-0,0430;56,35171351;37,51943729;1,99000001;
19:02:52:546;0,0161;0,2787;-0,0430;56,35171351;37,51943729;1,99000001;
19:02:52:548;0,0398;0,3034;-0,0169;56,35171351;37,51943729;1,99000001;
19:02:52:604;0,0398;0,3034;-0,0169;56,35171351;37,51943729;1,99000001;
19:02:52:606;0,0398;0,3034;-0,0169;56,35171351;37,51943729;1,99000001;
19:02:52:610;-0,0241;0,3555;-0,0200;56,35171351;37,51943729;1,99000001;
19:02:52:684;-0,0241;0,3555;-0,0200;56,35171351;37,51943729;1,99000001;
19:02:52:687;-0,0241;0,3555;-0,0200;56,35171351;37,51943729;1,99000001;
19:02:52:689;-0,0152;0,3323;-0,0534;56,35171351;37,51943729;1,99000001;
19:02:52:746;-0,0152;0,3323;-0,0534;56,35171351;37,51943729;1,99000001;
19:02:52:747;-0,0091;0,3376;-0,0085;56,35171351;37,51943729;1,99000001;
19:02:52:748;-0,0091;0,3376;-0,0085;56,35171351;37,51943729;1,99000001;
19:02:52:805;-0,0091;0,3376;-0,0085;56,35171351;37,51943729;1,99000001;
19:02:52:807;-0,0091;0,3376;-0,0085;56,35171351;37,51943729;1,99000001;
19:02:52:808;-0,0199;0,3505;-0,0111;56,35171351;37,51943729;1,99000001;
19:02:52:864;-0,0199;0,3505;-0,0111;56,35171351;37,51943729;1,99000001;
19:02:52:866;-0,0199;0,3505;-0,0111;56,35171351;37,51943729;1,99000001;
19:02:52:867;-0,0471;0,3135;-0,0262;56,35171351;37,51943729;1,99000001;
19:02:52:886;-0,0471;0,3135;-0,0262;56,35171351;37,51943729;1,99000001;
19:02:52:946;-0,0471;0,3135;-0,0262;56,35171351;37,51943729;1,99000001;
19:02:52:948;-0,0127;0,2530;-0,0381;56,35171351;37,51943729;1,99000001;
19:02:52:950;-0,0127;0,2530;-0,0381;56,35171351;37,51943729;1,99000001;
19:02:53:006;-0,0127;0,2530;-0,0381;56,35171351;37,51943729;1,99000001;
19:02:53:008;-0,0127;0,2530;-0,0381;56,35171351;37,51943729;1,99000001;
19:02:53:010;-0,0219;0,2431;0,0150;56,35171351;37,51943729;1,99000001;
19:02:53:067;-0,0219;0,2431;0,0150;56,35171351;37,51943729;1,99000001;
19:02:53:069;-0,0219;0,2431;0,0150;56,35171351;37,51943729;1,99000001;
19:02:53:071;-0,0153;0,2882;0,0041;56,35171351;37,51943729;1,99000001;
19:02:53:128;-0,0153;0,2882;0,0041;56,35171351;37,51943729;1,99000001;
19:02:53:130;-0,0153;0,2882;0,0041;56,35171351;37,51943729;1,99000001;
19:02:53:132;-0,0047;0,2299;-0,0211;56,35171351;37,51943729;1,99000001;
19:02:53:154;-0,0044;0,2050;-0,0187;56,35171351;37,51943729;1,99000001;
19:02:53:158;-0,0044;0,2050;-0,0187;56,35171351;37,51943729;1,99000001;
19:02:53:207;-0,0044;0,2050;-0,0187;56,35171351;37,51943729;1,99000001;
19:02:53:210;-0,0044;0,2050;-0,0187;56,35171351;37,51943729;1,99000001;
19:02:53:212;0,0255;0,1585;-0,0465;56,35171351;37,51943729;1,99000001;
19:02:53:269;0,0255;0,1585;-0,0465;56,35171351;37,51943729;1,99000001;
19:02:53:272;0,0255;0,1585;-0,0465;56,35171351;37,51943729;1,99000001;
19:02:53:273;-0,0116;0,1756;0,0123;56,35171351;37,51943729;1,99000001;
19:02:53:319;-0,0116;0,1756;0,0123;56,35171351;37,51943729;1,99000001;
19:02:53:323;-0,0203;0,1949;0,0333;56,35171351;37,51943729;1,99000001;
19:02:53:326;-0,0203;0,1949;0,0333;56,35171351;37,51943729;1,99000001;
19:02:53:382;-0,0203;0,1949;0,0333;56,35171351;37,51943729;1,99000001;
19:02:53:387;-0,0203;0,1949;0,0333;56,35171351;37,51943729;1,99000001;
19:02:53:388;-0,0137;0,1165;-0,0109;56,35171351;37,51943729;1,99000001;
19:02:53:469;-0,0137;0,1165;-0,0109;56,35171351;37,51943729;1,99000001;
19:02:53:471;-0,0137;0,1165;-0,0109;56,35171351;37,51943729;1,99000001;
19:02:53:472;-0,0216;0,1690;-0,0004;56,35171351;37,51943729;1,99000001;
19:02:53:530;-0,0216;0,1690;-0,0004;56,35171351;37,51943729;1,99000001;
19:02:53:533;-0,0216;0,1690;-0,0004;56,35171351;37,51943729;1,99000001;
19:02:53:534;-0,0002;0,0633;0,0227;56,35171351;37,51943729;1,99000001;
19:02:53:589;-0,0002;0,0633;0,0227;56,35171351;37,51943729;1,99000001;
19:02:53:593;-0,0002;0,0633;0,0227;56,35171351;37,51943729;1,99000001;
19:02:53:594;0,0289;0,0597;-0,0394;56,35171351;37,51943729;1,99000001;
19:02:53:651;0,0289;0,0597;-0,0394;56,35171351;37,51943729;1,99000001;
19:02:53:654;-0,0190;0,1415;-0,0144;56,35171351;37,51943729;1,99000001;
19:02:53:656;-0,0190;0,1415;-0,0144;56,35171351;37,51943729;1,99000001;
19:02:53:674;-0,0190;0,1415;-0,0144;56,35171351;37,51943729;1,99000001;
19:02:53:731;-0,0190;0,1415;-0,0144;56,35171351;37,51943729;1,99000001;
19:02:53:734;-0,0190;0,1415;-0,0144;56,35171351;37,51943729;1,99000001;
19:02:53:736;-0,0125;0,2495;0,0400;56,35171351;37,51943729;1,99000001;
19:02:53:791;-0,0125;0,2495;0,0400;56,35171351;37,51943729;1,99000001;
19:02:53:795;-0,0125;0,2495;0,0400;56,35171351;37,51943729;1,99000001;
19:02:53:798;-0,0352;0,5258;0,0260;56,35171351;37,51943729;1,99000001;
19:02:53:832;-0,0352;0,5258;0,0260;56,35171351;37,51943729;1,99000001;
19:02:53:834;-0,0567;0,6028;-0,0389;56,35171351;37,51943729;1,99000001;
19:02:53:892;-0,0567;0,6028;-0,0389;56,35171351;37,51943729;1,99000001;
19:02:53:894;-0,0567;0,6028;-0,0389;56,35171351;37,51943729;1,99000001;
19:02:53:896;-0,0126;0,5925;-0,0050;56,35171351;37,51943729;1,99000001;
19:02:53:936;-0,0126;0,5925;-0,0050;56,35171351;37,51943729;1,99000001;
19:02:53:938;-0,0126;0,5925;-0,0050;56,35171351;37,51943729;1,99000001;
19:02:53:939;-0,0132;0,5796;-0,0050;56,35171351;37,51943729;1,99000001;
19:02:53:993;-0,0132;0,5796;-0,0050;56,35171351;37,51943729;1,99000001;
19:02:53:996;-0,0132;0,5796;-0,0050;56,35171351;37,51943729;1,99000001;
19:02:53:997;0,0018;0,4567;-0,0896;56,35171351;37,51943729;1,99000001;
19:02:54:052;0,0018;0,4567;-0,0896;56,35171351;37,51943729;1,99000001;
19:02:54:055;0,0018;0,4567;-0,0896;56,35171351;37,51943729;1,99000001;
19:02:54:057;-0,0163;0,2982;-0,0719;56,35171351;37,51943729;1,99000001;
19:02:54:114;-0,0163;0,2982;-0,0719;56,35171351;37,51943729;1,99000001;
19:02:54:117;-0,0163;0,2982;-0,0719;56,35171351;37,51943729;1,99000001;
19:02:54:118;-0,0046;0,3158;0,0213;56,35171351;37,51943729;1,99000001;
19:02:54:173;-0,0046;0,3158;0,0213;56,35171351;37,51943729;1,99000001;
19:02:54:175;-0,0046;0,3158;0,0213;56,35171351;37,51943729;1,99000001;
19:02:54:177;-0,0197;0,3317;-0,0347;56,35171351;37,51943729;1,99000001;
19:02:54:253;-0,0197;0,3317;-0,0347;56,35171351;37,51943729;1,99000001;
19:02:54:256;-0,0197;0,3317;-0,0347;56,35171351;37,51943729;1,99000001;
19:02:54:258;-0,0083;0,2695;0,0018;56,35171351;37,51943729;1,99000001;
19:02:54:314;-0,0083;0,2695;0,0018;56,35171351;37,51943729;1,99000001;
19:02:54:317;-0,0083;0,2695;0,0018;56,35171351;37,51943729;1,99000001;
19:02:54:321;-0,0051;0,2680;-0,0530;56,35171351;37,51943729;1,99000001;
19:02:54:343;-0,0051;0,2680;-0,0530;56,35171351;37,51943729;1,99000001;
19:02:54:346;-0,0043;0,2387;-0,0471;56,35171351;37,51943729;1,99000001;
19:02:54:348;-0,0043;0,2387;-0,0471;56,35171351;37,51943729;1,99000001;
19:02:54:404;-0,0043;0,2387;-0,0471;56,35171351;37,51943729;1,99000001;
19:02:54:407;-0,0043;0,2387;-0,0471;56,35171351;37,51943729;1,99000001;
19:02:54:410;0,0045;0,1703;0,0042;56,35171351;37,51943729;1,99000001;
19:02:54:460;0,0045;0,1703;0,0042;56,35171351;37,51943729;1,99000001;
19:02:54:515;0,0045;0,1703;0,0042;56,35171351;37,51943729;1,99000001;
19:02:54:518;0,0045;0,1703;0,0042;56,35171351;37,51943729;1,99000001;
19:02:54:521;-0,0301;0,1974;-0,0040;56,35171351;37,51943729;1,99000001;
19:02:54:576;-0,0301;0,1974;-0,0040;56,35171351;37,51943729;1,99000001;
19:02:54:578;-0,0301;0,1974;-0,0040;56,35171351;37,51943729;1,99000001;
19:02:54:580;-0,0084;0,1724;-0,0178;56,35171351;37,51943729;1,99000001;
19:02:54:636;-0,0084;0,1724;-0,0178;56,35171351;37,51943729;1,99000001;
19:02:54:639;-0,0084;0,1724;-0,0178;56,35171351;37,51943729;1,99000001;
19:02:54:641;-0,0010;0,1166;0,0065;56,35171351;37,51943729;1,99000001;
19:02:54:696;0,0008;0,1171;-0,0084;56,35171351;37,51943729;1,99000001;
19:02:54:700;0,0008;0,1171;-0,0084;56,35171351;37,51943729;1,99000001;
19:02:54:702;0,0008;0,1171;-0,0084;56,35171351;37,51943729;1,99000001;
19:02:54:721;0,0008;0,1171;-0,0084;56,35171351;37,51943729;1,99000001;
19:02:54:724;0,0010;0,1040;-0,0075;56,35171351;37,51943729;1,99000001;
19:02:54:781;-0,0035;0,0990;0,0107;56,35171351;37,51943729;1,99000001;
19:02:54:786;-0,0035;0,0990;0,0107;56,35171351;37,51943729;1,99000001;
19:02:54:789;-0,0035;0,0990;0,0107;56,35171351;37,51943729;1,99000001;
19:02:54:836;-0,0035;0,0990;0,0107;56,35171351;37,51943729;1,99000001;
19:02:54:838;-0,0035;0,0990;0,0107;56,35171879;37,51941846;0,00000000;
19:02:54:840;0,0031;0,0715;0,0397;56,35171879;37,51941846;0,00000000;
19:02:54:896;0,0031;0,0715;0,0397;56,35171879;37,51941846;0,00000000;
19:02:54:897;0,0031;0,0715;0,0397;56,35171879;37,51941846;0,00000000;
19:02:54:898;-0,0031;0,0907;-0,0385;56,35171879;37,51941846;0,00000000;
19:02:54:958;-0,0031;0,0907;-0,0385;56,35171879;37,51941846;0,00000000;
19:02:54:961;-0,0031;0,0907;-0,0385;56,35171879;37,51941846;0,00000000;
19:02:54:963;-0,0111;0,0796;-0,0052;56,35171879;37,51941846;0,00000000;
19:02:55:038;-0,0111;0,0796;-0,0052;56,35171879;37,51941846;0,00000000;
19:02:55:042;-0,0111;0,0796;-0,0052;56,35171879;37,51941846;0,00000000;
19:02:55:043;0,0074;0,0567;0,0117;56,35171879;37,51941846;0,00000000;
19:02:55:099;-0,0030;0,0578;-0,0229;56,35171879;37,51941846;0,00000000;
19:02:55:103;-0,0030;0,0578;-0,0229;56,35171879;37,51941846;0,00000000;
19:02:55:105;-0,0030;0,0578;-0,0229;56,35171879;37,51941846;0,00000000;
19:02:55:159;-0,0030;0,0578;-0,0229;56,35171879;37,51941846;0,00000000;
19:02:55:162;-0,0030;0,0578;-0,0229;56,35171879;37,51941846;0,00000000;
19:02:55:164;0,0055;0,0473;0,0286;56,35171879;37,51941846;0,00000000;
19:02:55:219;0,0055;0,0473;0,0286;56,35171879;37,51941846;0,00000000;
19:02:55:222;0,0075;0,0470;-0,0012;56,35171879;37,51941846;0,00000000;
19:02:55:225;0,0075;0,0470;-0,0012;56,35171879;37,51941846;0,00000000;
19:02:55:239;0,0075;0,0470;-0,0012;56,35171879;37,51941846;0,00000000;
19:02:55:300;0,0075;0,0470;-0,0012;56,35171879;37,51941846;0,00000000;
19:02:55:304;0,0075;0,0470;-0,0012;56,35171879;37,51941846;0,00000000;
19:02:55:305;-0,0262;0,0347;0,0099;56,35171879;37,51941846;0,00000000;
19:02:55:364;-0,0262;0,0347;0,0099;56,35171879;37,51941846;0,00000000;
19:02:55:367;-0,0262;0,0347;0,0099;56,35171879;37,51941846;0,00000000;
19:02:55:369;-0,0033;0,0113;0,0102;56,35171879;37,51941846;0,00000000;
19:02:55:419;-0,0033;0,0113;0,0102;56,35171879;37,51941846;0,00000000;
19:02:55:421;0,0050;0,0259;-0,0005;56,35171879;37,51941846;0,00000000;
19:02:55:423;0,0050;0,0259;-0,0005;56,35171879;37,51941846;0,00000000;
19:02:55:481;0,0050;0,0259;-0,0005;56,35171879;37,51941846;0,00000000;
19:02:55:484;0,0050;0,0259;-0,0005;56,35171879;37,51941846;0,00000000;
19:02:55:486;-0,0104;0,0417;-0,0079;56,35171879;37,51941846;0,00000000;
19:02:55:504;-0,0093;0,0373;-0,0070;56,35171879;37,51941846;0,00000000;
19:02:55:508;-0,0093;0,0373;-0,0070;56,35171879;37,51941846;0,00000000;
19:02:55:561;-0,0093;0,0373;-0,0070;56,35171879;37,51941846;0,00000000;
19:02:55:564;-0,0093;0,0373;-0,0070;56,35171879;37,51941846;0,00000000;
19:02:55:566;0,0044;0,0236;0,0186;56,35171879;37,51941846;0,00000000;
19:02:55:621;0,0044;0,0236;0,0186;56,35171879;37,51941846;0,00000000;
19:02:55:625;0,0044;0,0236;0,0186;56,35171879;37,51941846;0,00000000;
19:02:55:627;0,0068;0,0142;0,0278;56,35171879;37,51941846;0,00000000;
19:02:55:681;0,0068;0,0142;0,0278;56,35171879;37,51941846;0,00000000;
19:02:55:684;0,0068;0,0142;0,0278;56,35171879;37,51941846;0,00000000;
19:02:55:686;-0,0006;0,0208;-0,0256;56,35171879;37,51941846;0,00000000;
19:02:55:742;-0,0006;0,0208;-0,0256;56,35171879;37,51941846;0,00000000;
19:02:55:746;-0,0006;0,0208;-0,0256;56,35171879;37,51941846;0,00000000;
19:02:55:747;-0,0070;0,0130;-0,0143;56,35171879;37,51941846;0,00000000;
19:02:55:820;-0,0070;0,0130;-0,0143;56,35171879;37,51941846;0,00000000;
19:02:55:823;-0,0070;0,0130;-0,0143;56,35171879;37,51941846;0,00000000;
19:02:55:825;0,0032;0,0243;0,0026;56,35171879;37,51941846;0,00000000;
19:02:55:881;0,0032;0,0243;0,0026;56,35171879;37,51941846;0,00000000;
19:02:55:884;0,0032;0,0243;0,0026;56,35171879;37,51941846;0,00000000;
19:02:55:886;-0,0086;0,0175;-0,0123;56,35171879;37,51941846;0,00000000;
19:02:55:943;-0,0086;0,0175;-0,0123;56,35171879;37,51941846;0,00000000;
19:02:55:946;-0,0086;0,0175;-0,0123;56,35171879;37,51941846;0,00000000;
19:02:55:948;0,0057;0,0057;0,0189;56,35171879;37,51941846;0,00000000;
19:02:56:003;0,0057;0,0057;0,0189;56,35171879;37,51941846;0,00000000;
19:02:56:006;0,0057;0,0057;0,0189;56,35171879;37,51941846;0,00000000;
19:02:56:008;0,0098;0,0019;0,0171;56,35171879;37,51941846;0,00000000;
19:02:56:024;0,0098;0,0019;0,0171;56,35171879;37,51941846;0,00000000;
19:02:56:084;0,0098;0,0019;0,0171;56,35171879;37,51941846;0,00000000;
19:02:56:087;-0,0205;0,0230;0,0060;56,35171879;37,51941846;0,00000000;
19:02:56:090;-0,0205;0,0230;0,0060;56,35171879;37,51941846;0,00000000;
19:02:56:145;-0,0001;0,0122;-0,0042;56,35171879;37,51941846;0,00000000;
19:02:56:150;-0,0001;0,0122;-0,0042;56,35171879;37,51941846;0,00000000;
19:02:56:152;-0,0001;0,0122;-0,0042;56,35171879;37,51941846;0,00000000;
19:02:56:205;-0,0001;0,0122;-0,0042;56,35171879;37,51941846;0,00000000;
19:02:56:207;-0,0001;0,0122;-0,0042;56,35171879;37,51941846;0,00000000;
19:02:56:209;-0,0023;-0,0017;0,0118;56,35171879;37,51941846;0,00000000;
19:02:56:264;-0,0023;-0,0017;0,0118;56,35171879;37,51941846;0,00000000;
19:02:56:267;-0,0023;-0,0017;0,0118;56,35171879;37,51941846;0,00000000;
19:02:56:269;0,0162;0,0492;-0,0101;56,35171879;37,51941846;0,00000000;
19:02:56:291;0,0148;0,0438;-0,0090;56,35171879;37,51941846;0,00000000;
19:02:56:296;0,0148;0,0438;-0,0090;56,35171879;37,51941846;0,00000000;
19:02:56:344;0,0148;0,0438;-0,0090;56,35171879;37,51941846;0,00000000;
19:02:56:348;0,0148;0,0438;-0,0090;56,35171879;37,51941846;0,00000000;
19:02:56:350;-0,0217;0,1113;0,0133;56,35171879;37,51941846;0,00000000;
19:02:56:405;-0,0217;0,1113;0,0133;56,35171879;37,51941846;0,00000000;
19:02:56:409;-0,0217;0,1113;0,0133;56,35171879;37,51941846;0,00000000;
19:02:56:411;-0,0072;0,1173;0,0118;56,35171879;37,51941846;0,00000000;
19:02:56:465;-0,0042;0,0742;-0,0388;56,35171879;37,51941846;0,00000000;
19:02:56:468;-0,0042;0,0742;-0,0388;56,35171879;37,51941846;0,00000000;
19:02:56:470;-0,0042;0,0742;-0,0388;56,35171879;37,51941846;0,00000000;
19:02:56:524;-0,0042;0,0742;-0,0388;56,35171879;37,51941846;0,00000000;
19:02:56:526;-0,0042;0,0742;-0,0388;56,35171879;37,51941846;0,00000000;
19:02:56:528;-0,0067;0,0876;0,0024;56,35171879;37,51941846;0,00000000;
19:02:56:594;-0,0067;0,0876;0,0024;56,35171879;37,51941846;0,00000000;
19:02:56:596;-0,0067;0,0876;0,0024;56,35171879;37,51941846;0,00000000;
19:02:56:597;-0,0005;0,0646;0,0277;56,35171879;37,51941846;0,00000000;
19:02:56:654;-0,0005;0,0646;0,0277;56,35171879;37,51941846;0,00000000;
19:02:56:655;-0,0005;0,0646;0,0277;56,35171879;37,51941846;0,00000000;
19:02:56:656;0,0036;0,0978;-0,0219;56,35171879;37,51941846;0,00000000;
19:02:56:715;0,0036;0,0978;-0,0219;56,35171879;37,51941846;0,00000000;
19:02:56:716;0,0036;0,0978;-0,0219;56,35171879;37,51941846;0,00000000;
19:02:56:717;-0,0190;0,0951;-0,0042;56,35171879;37,51941846;0,00000000;
19:02:56:775;-0,0190;0,0951;-0,0042;56,35171879;37,51941846;0,00000000;
19:02:56:777;-0,0190;0,0951;-0,0042;56,35171879;37,51941846;0,00000000;
19:02:56:779;-0,0051;0,0480;0,0374;56,35171879;37,51941846;0,00000000;
19:02:56:796;-0,0051;0,0480;0,0374;56,35171879;37,51941846;0,00000000;
19:02:56:856;-0,0051;0,0480;0,0374;56,35171879;37,51941846;0,00000000;
19:02:56:858;-0,0051;0,0480;0,0374;56,35171879;37,51941846;0,00000000;
19:02:56:860;-0,0087;0,1259;-0,0309;56,35171879;37,51941846;0,00000000;
19:02:56:917;-0,0087;0,1259;-0,0309;56,35171879;37,51941846;0,00000000;
19:02:56:919;-0,0087;0,1259;-0,0309;56,35171879;37,51941846;0,00000000;
19:02:56:922;-0,0193;0,1144;0,0115;56,35171879;37,51941846;0,00000000;
19:02:56:978;-0,0193;0,1144;0,0115;56,35171879;37,51941846;0,00000000;
19:02:56:981;-0,0193;0,1144;0,0115;56,35171879;37,51941846;0,00000000;
19:02:56:983;0,0104;0,1007;-0,0139;56,35171879;37,51941846;0,00000000;
19:02:57:039;0,0104;0,1007;-0,0139;56,35171879;37,51941846;0,00000000;
19:02:57:043;0,0104;0,1007;-0,0139;56,35171879;37,51941846;0,00000000;
19:02:57:045;-0,0266;0,1257;-0,0003;56,35171879;37,51941846;0,00000000;
19:02:57:062;-0,0245;0,1116;-0,0002;56,35171879;37,51941846;0,00000000;
19:02:57:069;-0,0245;0,1116;-0,0002;56,35171879;37,51941846;0,00000000;
19:02:57:119;-0,0245;0,1116;-0,0002;56,35171879;37,51941846;0,00000000;
19:02:57:121;-0,0245;0,1116;-0,0002;56,35171879;37,51941846;0,00000000;
19:02:57:123;0,0152;0,1176;0,0112;56,35171879;37,51941846;0,00000000;
19:02:57:178;0,0152;0,1176;0,0112;56,35171879;37,51941846;0,00000000;
19:02:57:180;0,0152;0,1176;0,0112;56,35171879;37,51941846;0,00000000;
19:02:57:182;-0,0013;0,1229;-0,0294;56,35171879;37,51941846;0,00000000;
19:02:57:240;-0,0013;0,1229;-0,0294;56,35171879;37,51941846;0,00000000;
19:02:57:245;-0,0013;0,1229;-0,0294;56,35171879;37,51941846;0,00000000;
19:02:57:247;0,0105;0,1154;-0,0010;56,35171879;37,51941846;0,00000000;
19:02:57:299;0,0105;0,1154;-0,0010;56,35171879;37,51941846;0,00000000;
19:02:57:303;0,0096;0,1133;0,0132;56,35171879;37,51941846;0,00000000;
19:02:57:306;0,0096;0,1133;0,0132;56,35171879;37,51941846;0,00000000;
19:02:57:381;0,0096;0,1133;0,0132;56,35171879;37,51941846;0,00000000;
19:02:57:384;0,0096;0,1133;0,0132;56,35171879;37,51941846;0,00000000;
19:02:57:386;-0,0152;0,1421;0,0050;56,35171879;37,51941846;0,00000000;
19:02:57:441;-0,0152;0,1421;0,0050;56,35171879;37,51941846;0,00000000;
19:02:57:443;-0,0152;0,1421;0,0050;56,35171879;37,51941846;0,00000000;
19:02:57:445;-0,0544;0,1047;-0,0125;56,35171879;37,51941846;0,00000000;
19:02:57:501;-0,0544;0,1047;-0,0125;56,35171879;37,51941846;0,00000000;
19:02:57:504;-0,0544;0,1047;-0,0125;56,35171879;37,51941846;0,00000000;
19:02:57:506;0,0055;0,1035;0,0052;56,35171879;37,51941846;0,00000000;
19:02:57:562;0,0055;0,1035;0,0052;56,35171879;37,51941846;0,00000000;
19:02:57:565;0,0055;0,1035;0,0052;56,35171879;37,51941846;0,00000000;
19:02:57:567;0,0069;0,1210;-0,0337;56,35171879;37,51941846;0,00000000;
19:02:57:584;0,0069;0,1210;-0,0337;56,35171879;37,51941846;0,00000000;
19:02:57:643;0,0069;0,1210;-0,0337;56,35171879;37,51941846;0,00000000;
19:02:57:646;0,0069;0,1210;-0,0337;56,35171879;37,51941846;0,00000000;
19:02:57:649;-0,0113;0,0911;-0,0409;56,35171879;37,51941846;0,00000000;
19:02:57:703;-0,0113;0,0911;-0,0409;56,35171879;37,51941846;0,00000000;
19:02:57:706;-0,0113;0,0911;-0,0409;56,35171879;37,51941846;0,00000000;
19:02:57:708;0,0318;0,0913;0,0232;56,35171879;37,51941846;0,00000000;
19:02:57:762;0,0318;0,0913;0,0232;56,35171879;37,51941846;0,00000000;
19:02:57:765;0,0318;0,0913;0,0232;56,35171879;37,51941846;0,00000000;
19:02:57:767;0,0008;0,0777;0,0121;56,35171879;37,51941846;0,00000000;
19:02:57:821;0,0008;0,0777;0,0121;56,35171879;37,51941846;0,00000000;
19:02:57:824;0,0008;0,0777;0,0121;56,35171879;37,51941846;0,00000000;
19:02:57:825;-0,0470;0,0669;0,0320;56,35171879;37,51941846;0,00000000;
19:02:57:893;-0,0470;0,0669;0,0320;56,35171879;37,51941846;0,00000000;
19:02:57:895;-0,0470;0,0669;0,0320;56,35171879;37,51941846;0,00000000;
19:02:57:897;-0,0253;0,1006;-0,0318;56,35171879;37,51941846;0,00000000;
19:02:57:954;-0,0253;0,1006;-0,0318;56,35171879;37,51941846;0,00000000;
19:02:57:957;-0,0253;0,1006;-0,0318;56,35171879;37,51941846;0,00000000;
19:02:57:958;0,0062;0,1224;-0,0379;56,35171879;37,51941846;0,00000000;
19:02:58:015;0,0062;0,1224;-0,0379;56,35171879;37,51941846;0,00000000;
19:02:58:018;0,0062;0,1224;-0,0379;56,35171879;37,51941846;0,00000000;
19:02:58:020;0,0141;0,1221;-0,0145;56,35171879;37,51941846;0,00000000;
19:02:58:074;0,0141;0,1221;-0,0145;56,35171879;37,51941846;0,00000000;
19:02:58:078;0,0141;0,1221;-0,0145;56,35171879;37,51941846;0,00000000;
19:02:58:080;-0,0085;0,0967;0,0726;56,35171879;37,51941846;0,00000000;
19:02:58:105;-0,0085;0,0967;0,0726;56,35171879;37,51941846;0,00000000;
19:02:58:108;-0,0086;0,0852;0,0646;56,35171879;37,51941846;0,00000000;
19:02:58:157;-0,0086;0,0852;0,0646;56,35171879;37,51941846;0,00000000;
19:02:58:161;-0,0086;0,0852;0,0646;56,35171879;37,51941846;0,00000000;
19:02:58:163;0,0179;0,1054;0,0039;56,35171879;37,51941846;0,00000000;
19:02:58:213;0,0179;0,1054;0,0039;56,35171879;37,51941846;0,00000000;
19:02:58:215;0,0179;0,1054;0,0039;56,35171879;37,51941846;0,00000000;
19:02:58:216;0,0236;0,1341;-0,0665;56,35171879;37,51941846;0,00000000;
19:02:58:275;0,0236;0,1341;-0,0665;56,35171879;37,51941846;0,00000000;
19:02:58:278;0,0236;0,1341;-0,0665;56,35171879;37,51941846;0,00000000;
19:02:58:281;-0,0196;0,1359;-0,0324;56,35171879;37,51941846;0,00000000;
