
time;ax;ay;az;Latitude;Longitude;Speed (m/s);
22:55:40:710;0,0000;0,0000;0,0000;0,00000000;0,00000000;0,00000000;
22:55:40:712;0,0000;0,0000;0,0000;56,35393429;37,50888469;9,65999985;
22:55:40:713;0,0000;0,0000;0,0000;56,35393429;37,50888469;9,65999985;
22:55:40:790;0,0000;0,0000;0,0000;56,35393429;37,50888469;9,65999985;
22:55:40:794;0,0000;0,0000;0,0000;56,35393429;37,50888469;9,65999985;
22:55:40:797;0,0000;0,0000;0,0000;56,35393429;37,50888469;9,65999985;
22:55:40:798;0,0000;0,0000;0,0000;56,35393429;37,50888469;9,65999985;
22:55:40:800;0,0000;0,0000;-0,0000;56,35393429;37,50888469;9,65999985;
22:55:40:844;0,0000;0,0000;-0,0000;56,35393429;37,50888469;9,65999985;
22:55:40:846;0,0095;-0,0081;-0,0975;56,35393429;37,50888469;9,65999985;
22:55:40:857;0,0095;-0,0081;-0,0975;56,35393429;37,50888469;9,65999985;
22:55:40:860;0,0095;-0,0081;-0,0975;56,35393429;37,50888469;9,65999985;
22:55:40:861;0,0095;-0,0081;-0,0975;56,35393429;37,50888469;9,65999985;
22:55:40:903;0,0095;-0,0081;-0,0975;56,35393429;37,50888469;9,65999985;
22:55:40:906;0,0482;-0,0039;-0,0254;56,35393429;37,50888469;9,65999985;
22:55:40:935;0,0482;-0,0039;-0,0254;56,35393429;37,50888469;9,65999985;
22:55:40:938;0,0482;-0,0039;-0,0254;56,35393429;37,50888469;9,65999985;
22:55:40:940;0,0482;-0,0039;-0,0254;56,35393429;37,50888469;9,65999985;
22:55:40:943;0,0482;-0,0039;-0,0254;56,35393429;37,50888469;9,65999985;
22:55:40:995;0,0482;-0,0039;-0,0254;56,35393429;37,50888469;9,65999985;
22:55:40:997;-0,0493;-0,0052;0,0937;56,35393429;37,50888469;9,65999985;
22:55:41:013;-0,0493;-0,0052;0,0937;56,35393429;37,50888469;9,65999985;
22:55:41:015;-0,0348;-0,0088;0,0697;56,35393429;37,50888469;9,65999985;
22:55:41:018;-0,0348;-0,0088;0,0697;56,35393429;37,50888469;9,65999985;
22:55:41:019;-0,0348;-0,0088;0,0697;56,35393429;37,50888469;9,65999985;
22:55:41:021;-0,0348;-0,0088;0,0697;56,35393429;37,50888469;9,65999985;
22:55:41:023;-0,0348;-0,0088;0,0697;56,35393429;37,50888469;9,65999985;
22:55:41:075;-0,0348;-0,0088;0,0697;56,35393429;37,50888469;9,65999985;
22:55:41:078;-0,0344;-0,0073;-0,0126;56,35393429;37,50888469;9,65999985;
22:55:41:080;-0,0344;-0,0073;-0,0126;56,35393429;37,50888469;9,65999985;
22:55:41:082;-0,0344;-0,0073;-0,0126;56,35393429;37,50888469;9,65999985;
22:55:41:084;-0,0344;-0,0073;-0,0126;56,35393429;37,50888469;9,65999985;
22:55:41:135;-0,0344;-0,0073;-0,0126;56,35393429;37,50888469;9,65999985;
22:55:41:137;0,0721;0,0105;0,0239;56,35393429;37,50888469;9,65999985;
22:55:41:154;0,0721;0,0105;0,0239;56,35393429;37,50888469;9,65999985;
22:55:41:156;0,0721;0,0105;0,0239;56,35393429;37,50888469;9,65999985;
22:55:41:162;0,0721;0,0105;0,0239;56,35393429;37,50888469;9,65999985;
22:55:41:164;0,0721;0,0105;0,0239;56,35393429;37,50888469;9,65999985;
22:55:41:196;0,0721;0,0105;0,0239;56,35393429;37,50888469;9,65999985;
22:55:41:198;0,0260;-0,0006;-0,0144;56,35393429;37,50888469;9,65999985;
22:55:41:232;0,0260;-0,0006;-0,0144;56,35393429;37,50888469;9,65999985;
22:55:41:233;0,0260;-0,0006;-0,0144;56,35393429;37,50888469;9,65999985;
22:55:41:234;0,0260;-0,0006;-0,0144;56,35393429;37,50888469;9,65999985;
22:55:41:234;0,0260;-0,0006;-0,0144;56,35393429;37,50888469;9,65999985;
22:55:41:286;0,0260;-0,0006;-0,0144;56,35393429;37,50888469;9,65999985;
22:55:41:289;-0,0835;-0,0142;0,0488;56,35393429;37,50888469;9,65999985;
22:55:41:292;-0,0835;-0,0142;0,0488;56,35393429;37,50888469;9,65999985;
22:55:41:294;-0,0835;-0,0142;0,0488;56,35393429;37,50888469;9,65999985;
22:55:41:296;-0,0835;-0,0142;0,0488;56,35393429;37,50888469;9,65999985;
22:55:41:346;-0,0835;-0,0142;0,0488;56,35393429;37,50888469;9,65999985;
22:55:41:348;-0,0452;0,0109;-0,0445;56,35393429;37,50888469;9,65999985;
22:55:41:369;-0,0452;0,0109;-0,0445;56,35393429;37,50888469;9,65999985;
22:55:41:371;-0,0428;0,0050;-0,0400;56,35393429;37,50888469;9,65999985;
22:55:41:373;-0,0428;0,0050;-0,0400;56,35393429;37,50888469;9,65999985;
22:55:41:376;-0,0428;0,0050;-0,0400;56,35393429;37,50888469;9,65999985;
22:55:41:378;-0,0428;0,0050;-0,0400;56,35393429;37,50888469;9,65999985;
22:55:41:380;-0,0428;0,0050;-0,0400;56,35393429;37,50888469;9,65999985;
22:55:41:433;-0,0428;0,0050;-0,0400;56,35393429;37,50888469;9,65999985;
22:55:41:436;0,1107;0,0457;0,0629;56,35393429;37,50888469;9,65999985;
22:55:41:447;0,1107;0,0457;0,0629;56,35393429;37,50888469;9,65999985;
22:55:41:449;0,1107;0,0457;0,0629;56,35393429;37,50888469;9,65999985;
22:55:41:450;0,1107;0,0457;0,0629;56,35393429;37,50888469;9,65999985;
22:55:41:452;0,1107;0,0457;0,0629;56,35393429;37,50888469;9,65999985;
22:55:41:517;0,1107;0,0457;0,0629;56,35393429;37,50888469;9,65999985;
22:55:41:519;0,1107;0,0457;0,0629;56,35393429;37,50888469;9,65999985;
22:55:41:521;0,1107;0,0457;0,0629;56,35393429;37,50888469;9,65999985;
22:55:41:522;0,1107;0,0457;0,0629;56,35393429;37,50888469;9,65999985;
22:55:41:524;0,0834;-0,0320;-0,1053;56,35393429;37,50888469;9,65999985;
22:55:41:578;0,0834;-0,0320;-0,1053;56,35393429;37,50888469;9,65999985;
22:55:41:581;0,0064;-0,1009;0,0336;56,35393429;37,50888469;9,65999985;
22:55:41:594;0,0064;-0,1009;0,0336;56,35393429;37,50888469;9,65999985;
22:55:41:598;0,0064;-0,1009;0,0336;56,35393429;37,50888469;9,65999985;
22:55:41:600;0,0064;-0,1009;0,0336;56,35393429;37,50888469;9,65999985;
22:55:41:601;0,0064;-0,1009;0,0336;56,35393429;37,50888469;9,65999985;
22:55:41:647;0,0064;-0,1009;0,0336;56,35393429;37,50888469;9,65999985;
22:55:41:649;-0,0606;-0,0322;0,1072;56,35393429;37,50888469;9,65999985;
22:55:41:671;-0,0606;-0,0322;0,1072;56,35393429;37,50888469;9,65999985;
22:55:41:673;-0,0537;-0,0344;0,0948;56,35393429;37,50888469;9,65999985;
22:55:41:675;-0,0537;-0,0344;0,0948;56,35393429;37,50888469;9,65999985;
22:55:41:677;-0,0537;-0,0344;0,0948;56,35393429;37,50888469;9,65999985;
22:55:41:678;-0,0537;-0,0344;0,0948;56,35393429;37,50888469;9,65999985;
22:55:41:679;-0,0537;-0,0344;0,0948;56,35393429;37,50888469;9,65999985;
22:55:41:721;-0,0537;-0,0344;0,0948;56,35393429;37,50888469;9,65999985;
22:55:41:722;-0,0537;-0,0344;0,0948;56,35393429;37,50888469;9,65999985;
22:55:41:779;-0,0537;-0,0344;0,0948;56,35393429;37,50888469;9,65999985;
22:55:41:781;0,0809;-0,0301;-0,1859;56,35393429;37,50888469;9,65999985;
22:55:41:799;0,0809;-0,0301;-0,1859;56,35393429;37,50888469;9,65999985;
22:55:41:803;0,0730;-0,0294;-0,1655;56,35393429;37,50888469;9,65999985;
22:55:41:805;0,0730;-0,0294;-0,1655;56,35393429;37,50888469;9,65999985;
22:55:41:808;0,0730;-0,0294;-0,1655;56,35393429;37,50888469;9,65999985;
22:55:41:811;0,0730;-0,0294;-0,1655;56,35393429;37,50888469;9,65999985;
22:55:41:813;0,0730;-0,0294;-0,1655;56,35393429;37,50888469;9,65999985;
22:55:41:859;0,0730;-0,0294;-0,1655;56,35393429;37,50888469;9,65999985;
22:55:41:861;0,0904;-0,0226;-0,0066;56,35393429;37,50888469;9,65999985;
22:55:41:878;0,0904;-0,0226;-0,0066;56,35393429;37,50888469;9,65999985;
22:55:41:880;0,0904;-0,0226;-0,0066;56,35393429;37,50888469;9,65999985;
22:55:41:882;0,0904;-0,0226;-0,0066;56,35393429;37,50888469;9,65999985;
22:55:41:883;0,0904;-0,0226;-0,0066;56,35393429;37,50888469;9,65999985;
22:55:41:940;0,0904;-0,0226;-0,0066;56,35393429;37,50888469;9,65999985;
22:55:41:941;0,0461;-0,0732;-0,0751;56,35393429;37,50888469;9,65999985;
22:55:41:944;0,0461;-0,0732;-0,0751;56,35393429;37,50888469;9,65999985;
22:55:41:945;0,0461;-0,0732;-0,0751;56,35393429;37,50888469;9,65999985;
22:55:41:947;0,0461;-0,0732;-0,0751;56,35393429;37,50888469;9,65999985;
22:55:41:983;0,0461;-0,0732;-0,0751;56,35393429;37,50888469;9,65999985;
22:55:41:985;0,0408;-0,0626;-0,0665;56,35393429;37,50888469;9,65999985;
22:55:42:019;0,0408;-0,0626;-0,0665;56,35393429;37,50888469;9,65999985;
22:55:42:020;0,0408;-0,0626;-0,0665;56,35393429;37,50888469;9,65999985;
22:55:42:022;0,0408;-0,0626;-0,0665;56,35393429;37,50888469;9,65999985;
22:55:42:023;0,0408;-0,0626;-0,0665;56,35393429;37,50888469;9,65999985;
22:55:42:080;0,0079;-0,0575;0,0977;56,35393429;37,50888469;9,65999985;
22:55:42:083;0,0079;-0,0575;0,0977;56,35393429;37,50888469;9,65999985;
22:55:42:098;0,0079;-0,0575;0,0977;56,35393429;37,50888469;9,65999985;
22:55:42:100;0,0045;-0,0542;0,0866;56,35393429;37,50888469;9,65999985;
22:55:42:102;0,0045;-0,0542;0,0866;56,35393429;37,50888469;9,65999985;
22:55:42:103;0,0045;-0,0542;0,0866;56,35393429;37,50888469;9,65999985;
22:55:42:105;0,0045;-0,0542;0,0866;56,35393429;37,50888469;9,65999985;
22:55:42:109;0,0045;-0,0542;0,0866;56,35393429;37,50888469;9,65999985;
22:55:42:150;0,0045;-0,0542;0,0866;56,35393429;37,50888469;9,65999985;
22:55:42:151;0,0103;0,0195;-0,0339;56,35393429;37,50888469;9,65999985;
22:55:42:157;0,0103;0,0195;-0,0339;56,35393429;37,50888469;9,65999985;
22:55:42:160;0,0103;0,0195;-0,0339;56,35393429;37,50888469;9,65999985;
22:55:42:162;0,0103;0,0195;-0,0339;56,35393429;37,50888469;9,65999985;
22:55:42:213;0,0103;0,0195;-0,0339;56,35393429;37,50888469;9,65999985;
22:55:42:216;0,0375;0,0573;-0,1791;56,35393429;37,50888469;9,65999985;
22:55:42:233;0,0375;0,0573;-0,1791;56,35393429;37,50888469;9,65999985;
22:55:42:235;0,0375;0,0573;-0,1791;56,35393429;37,50888469;9,65999985;
22:55:42:237;0,0375;0,0573;-0,1791;56,35393429;37,50888469;9,65999985;
22:55:42:239;0,0375;0,0573;-0,1791;56,35393429;37,50888469;9,65999985;
22:55:42:301;0,0375;0,0573;-0,1791;56,35393429;37,50888469;9,65999985;
22:55:42:304;-0,0385;-0,0592;0,0429;56,35393429;37,50888469;9,65999985;
22:55:42:307;-0,0385;-0,0592;0,0429;56,35393429;37,50888469;9,65999985;
22:55:42:309;-0,0385;-0,0592;0,0429;56,35393429;37,50888469;9,65999985;
22:55:42:312;-0,0385;-0,0592;0,0429;56,35393429;37,50888469;9,65999985;
22:55:42:362;-0,0385;-0,0592;0,0429;56,35393429;37,50888469;9,65999985;
22:55:42:364;0,0265;0,0246;-0,0768;56,35393429;37,50888469;9,65999985;
22:55:42:373;0,0265;0,0246;-0,0768;56,35393429;37,50888469;9,65999985;
22:55:42:377;0,0265;0,0246;-0,0768;56,35393429;37,50888469;9,65999985;
22:55:42:380;0,0265;0,0246;-0,0768;56,35393429;37,50888469;9,65999985;
22:55:42:421;0,0265;0,0246;-0,0768;56,35393429;37,50888469;9,65999985;
22:55:42:424;-0,0573;-0,0290;0,0360;56,35393429;37,50888469;9,65999985;
22:55:42:450;-0,0573;-0,0290;0,0360;56,35393429;37,50888469;9,65999985;
22:55:42:452;-0,0573;-0,0290;0,0360;56,35393429;37,50888469;9,65999985;
22:55:42:453;-0,0573;-0,0290;0,0360;56,35393429;37,50888469;9,65999985;
22:55:42:455;-0,0573;-0,0290;0,0360;56,35393429;37,50888469;9,65999985;
22:55:42:501;-0,0573;-0,0290;0,0360;56,35393429;37,50888469;9,65999985;
22:55:42:502;-0,0680;-0,0356;0,0019;56,35393429;37,50888469;9,65999985;
22:55:42:525;-0,0680;-0,0356;0,0019;56,35393429;37,50888469;9,65999985;
22:55:42:526;-0,0666;-0,0341;0,0016;56,35393429;37,50888469;9,65999985;
22:55:42:528;-0,0666;-0,0341;0,0016;56,35393429;37,50888469;9,65999985;
22:55:42:530;-0,0666;-0,0341;0,0016;56,35393429;37,50888469;9,65999985;
22:55:42:532;-0,0666;-0,0341;0,0016;56,35393429;37,50888469;9,65999985;
22:55:42:533;-0,0666;-0,0341;0,0016;56,35393429;37,50888469;9,65999985;
22:55:42:582;-0,0666;-0,0341;0,0016;56,35393429;37,50888469;9,65999985;
22:55:42:583;0,0749;0,0382;-0,1554;56,35393429;37,50888469;9,65999985;
22:55:42:586;0,0749;0,0382;-0,1554;56,35393429;37,50888469;9,65999985;
22:55:42:587;0,0749;0,0382;-0,1554;56,35393429;37,50888469;9,65999985;
22:55:42:589;0,0749;0,0382;-0,1554;56,35393429;37,50888469;9,65999985;
22:55:42:643;0,0749;0,0382;-0,1554;56,35393429;37,50888469;9,65999985;
22:55:42:645;0,1195;0,0825;-0,0640;56,35393429;37,50888469;9,65999985;
22:55:42:663;0,1195;0,0825;-0,0640;56,35393429;37,50888469;9,65999985;
22:55:42:665;0,1195;0,0825;-0,0640;56,35393429;37,50888469;9,65999985;
22:55:42:667;0,1195;0,0825;-0,0640;56,35393429;37,50888469;9,65999985;
22:55:42:668;0,1195;0,0825;-0,0640;56,35393429;37,50888469;9,65999985;
22:55:42:722;0,1195;0,0825;-0,0640;56,35393429;37,50888469;9,65999985;
22:55:42:724;0,0778;0,0801;-0,0821;56,35393429;37,50888469;9,65999985;
22:55:42:743;0,0778;0,0801;-0,0821;56,35393429;37,50888469;9,65999985;
22:55:42:746;0,0778;0,0801;-0,0821;56,35393429;37,50888469;9,65999985;
22:55:42:747;0,0778;0,0801;-0,0821;56,35393429;37,50888469;9,65999985;
22:55:42:749;0,0778;0,0801;-0,0821;56,35393429;37,50888469;9,65999985;
22:55:42:762;0,0778;0,0801;-0,0821;56,35393429;37,50888469;9,65999985;
22:55:42:763;0,0688;0,0732;-0,0728;56,35393429;37,50888469;9,65999985;
22:55:42:803;0,0688;0,0732;-0,0728;56,35393429;37,50888469;9,65999985;
22:55:42:824;0,0688;0,0732;-0,0728;56,35393429;37,50888469;9,65999985;
22:55:42:828;0,0460;0,0772;-0,1459;56,35393429;37,50888469;9,65999985;
22:55:42:887;0,0460;0,0772;-0,1459;56,35393429;37,50888469;9,65999985;
22:55:42:890;0,1140;0,0457;-0,0761;56,35393429;37,50888469;9,65999985;
22:55:42:897;0,1140;0,0457;-0,0761;56,35393429;37,50888469;9,65999985;
22:55:42:899;0,1140;0,0457;-0,0761;56,35393429;37,50888469;9,65999985;
22:55:42:900;0,1140;0,0457;-0,0761;56,35393429;37,50888469;9,65999985;
22:55:42:901;0,1140;0,0457;-0,0761;56,35393429;37,50888469;9,65999985;
22:55:42:903;0,1140;0,0457;-0,0761;56,35393429;37,50888469;9,65999985;
22:55:42:906;0,1140;0,0457;-0,0761;56,35393429;37,50888469;9,65999985;
22:55:42:944;0,1140;0,0457;-0,0761;56,35393429;37,50888469;9,65999985;
22:55:42:946;0,0795;0,0096;0,0760;56,35393429;37,50888469;9,65999985;
22:55:42:961;0,0795;0,0096;0,0760;56,35393429;37,50888469;9,65999985;
22:55:42:965;0,0795;0,0096;0,0760;56,35393429;37,50888469;9,65999985;
22:55:42:967;0,0795;0,0096;0,0760;56,35393429;37,50888469;9,65999985;
22:55:42:968;0,0795;0,0096;0,0760;56,35393429;37,50888469;9,65999985;
22:55:43:016;0,0795;0,0096;0,0760;56,35393429;37,50888469;9,65999985;
22:55:43:017;0,0680;0,0197;-0,0242;56,35393429;37,50888469;9,65999985;
22:55:43:020;0,0680;0,0197;-0,0242;56,35393429;37,50888469;9,65999985;
22:55:43:022;0,0680;0,0197;-0,0242;56,35393429;37,50888469;9,65999985;
22:55:43:028;0,0680;0,0197;-0,0242;56,35393429;37,50888469;9,65999985;
22:55:43:074;0,0680;0,0197;-0,0242;56,35393429;37,50888469;9,65999985;
22:55:43:075;-0,0456;-0,0093;-0,0361;56,35393429;37,50888469;9,65999985;
22:55:43:095;-0,0456;-0,0093;-0,0361;56,35393429;37,50888469;9,65999985;
22:55:43:096;-0,0456;-0,0093;-0,0361;56,35393429;37,50888469;9,65999985;
22:55:43:097;-0,0456;-0,0093;-0,0361;56,35393429;37,50888469;9,65999985;
22:55:43:097;-0,0456;-0,0093;-0,0361;56,35393429;37,50888469;9,65999985;
22:55:43:156;-0,0456;-0,0093;-0,0361;56,35393429;37,50888469;9,65999985;
22:55:43:158;0,0750;0,0409;-0,0003;56,35393429;37,50888469;9,65999985;
22:55:43:173;0,0750;0,0409;-0,0003;56,35393429;37,50888469;9,65999985;
22:55:43:175;0,0750;0,0409;-0,0003;56,35393429;37,50888469;9,65999985;
22:55:43:177;0,0750;0,0409;-0,0003;56,35393429;37,50888469;9,65999985;
22:55:43:179;0,0750;0,0409;-0,0003;56,35393429;37,50888469;9,65999985;
22:55:43:180;0,0750;0,0409;-0,0003;56,35393429;37,50888469;9,65999985;
22:55:43:181;0,0678;0,0398;0,0001;56,35393429;37,50888469;9,65999985;
22:55:43:236;0,0678;0,0398;0,0001;56,35393429;37,50888469;9,65999985;
22:55:43:238;0,0678;0,0398;0,0001;56,35393429;37,50888469;9,65999985;
22:55:43:240;0,0678;0,0398;0,0001;56,35393429;37,50888469;9,65999985;
22:55:43:243;0,0678;0,0398;0,0001;56,35393429;37,50888469;9,65999985;
22:55:43:246;-0,0525;0,0298;-0,0501;56,35393429;37,50888469;9,65999985;
22:55:43:320;-0,0525;0,0298;-0,0501;56,35393429;37,50888469;9,65999985;
22:55:43:322;0,0185;-0,0069;0,1546;56,35393429;37,50888469;9,65999985;
22:55:43:325;0,0185;-0,0069;0,1546;56,35393429;37,50888469;9,65999985;
22:55:43:327;0,0185;-0,0069;0,1546;56,35393429;37,50888469;9,65999985;
22:55:43:330;0,0185;-0,0069;0,1546;56,35393429;37,50888469;9,65999985;
22:55:43:367;0,0185;-0,0069;0,1546;56,35393429;37,50888469;9,65999985;
22:55:43:369;-0,0015;0,0180;-0,0224;56,35393429;37,50888469;9,65999985;
22:55:43:393;-0,0015;0,0180;-0,0224;56,35393429;37,50888469;9,65999985;
22:55:43:395;-0,0015;0,0180;-0,0224;56,35393429;37,50888469;9,65999985;
22:55:43:397;-0,0015;0,0180;-0,0224;56,35393429;37,50888469;9,65999985;
22:55:43:398;-0,0015;0,0180;-0,0224;56,35393429;37,50888469;9,65999985;
22:55:43:448;-0,0015;0,0180;-0,0224;56,35393429;37,50888469;9,65999985;
22:55:43:450;-0,0015;0,0180;-0,0224;56,35393429;37,50888469;9,65999985;
22:55:43:452;-0,0015;0,0180;-0,0224;56,35393429;37,50888469;9,65999985;
22:55:43:454;-0,0015;0,0180;-0,0224;56,35393429;37,50888469;9,65999985;
22:55:43:456;-0,0394;0,0558;-0,0689;56,35393429;37,50888469;9,65999985;
22:55:43:508;-0,0394;0,0558;-0,0689;56,35393429;37,50888469;9,65999985;
22:55:43:511;-0,1201;-0,0157;0,0548;56,35393429;37,50888469;9,65999985;
22:55:43:531;-0,1201;-0,0157;0,0548;56,35393429;37,50888469;9,65999985;
22:55:43:533;-0,1201;-0,0157;0,0548;56,35393429;37,50888469;9,65999985;
22:55:43:536;-0,1201;-0,0157;0,0548;56,35393429;37,50888469;9,65999985;
22:55:43:537;-0,1201;-0,0157;0,0548;56,35393429;37,50888469;9,65999985;
22:55:43:542;-0,1201;-0,0157;0,0548;56,35393429;37,50888469;9,65999985;
22:55:43:544;-0,1035;-0,0099;0,0490;56,35393429;37,50888469;9,65999985;
22:55:43:597;-0,1035;-0,0099;0,0490;56,35393429;37,50888469;9,65999985;
22:55:43:599;-0,0034;0,0121;-0,1484;56,35393429;37,50888469;9,65999985;
22:55:43:601;-0,0034;0,0121;-0,1484;56,35393429;37,50888469;9,65999985;
22:55:43:602;-0,0034;0,0121;-0,1484;56,35393429;37,50888469;9,65999985;
22:55:43:604;-0,0034;0,0121;-0,1484;56,35393429;37,50888469;9,65999985;
22:55:43:605;-0,0034;0,0121;-0,1484;56,35393429;37,50888469;9,65999985;
22:55:43:669;-0,0034;0,0121;-0,1484;56,35393429;37,50888469;9,65999985;
22:55:43:671;-0,0035;0,0327;-0,0225;56,35393429;37,50888469;9,65999985;
22:55:43:673;-0,0035;0,0327;-0,0225;56,35393429;37,50888469;9,65999985;
22:55:43:675;-0,0035;0,0327;-0,0225;56,35393429;37,50888469;9,65999985;
22:55:43:679;-0,0035;0,0327;-0,0225;56,35393429;37,50888469;9,65999985;
22:55:43:716;-0,0035;0,0327;-0,0225;56,35393429;37,50888469;9,65999985;
22:55:43:717;-0,0867;0,0107;-0,0263;56,35541262;37,50209454;4,09999990;
22:55:43:745;-0,0867;0,0107;-0,0263;56,35541262;37,50209454;4,09999990;
22:55:43:747;-0,0867;0,0107;-0,0263;56,35541262;37,50209454;4,09999990;
22:55:43:748;-0,0867;0,0107;-0,0263;56,35541262;37,50209454;4,09999990;
22:55:43:749;-0,0867;0,0107;-0,0263;56,35541262;37,50209454;4,09999990;
22:55:43:798;-0,0867;0,0107;-0,0263;56,35541262;37,50209454;4,09999990;
22:55:43:800;-0,1582;0,0641;-0,0161;56,35541262;37,50209454;4,09999990;
22:55:43:822;-0,1582;0,0641;-0,0161;56,35541262;37,50209454;4,09999990;
22:55:43:824;-0,1582;0,0641;-0,0161;56,35541262;37,50209454;4,09999990;
22:55:43:825;-0,1582;0,0641;-0,0161;56,35541262;37,50209454;4,09999990;
22:55:43:827;-0,1582;0,0641;-0,0161;56,35541262;37,50209454;4,09999990;
22:55:43:880;-0,1582;0,0641;-0,0161;56,35541262;37,50209454;4,09999990;
22:55:43:883;-0,2514;0,0267;-0,0011;56,35541262;37,50209454;4,09999990;
22:55:43:886;-0,2514;0,0267;-0,0011;56,35541262;37,50209454;4,09999990;
22:55:43:888;-0,2514;0,0267;-0,0011;56,35541262;37,50209454;4,09999990;
22:55:43:890;-0,2514;0,0267;-0,0011;56,35541262;37,50209454;4,09999990;
22:55:43:940;-0,2514;0,0267;-0,0011;56,35541262;37,50209454;4,09999990;
22:55:43:943;-0,2186;0,0626;-0,0133;56,35541262;37,50209454;4,09999990;
22:55:43:966;-0,2186;0,0626;-0,0133;56,35541262;37,50209454;4,09999990;
22:55:43:968;-0,2186;0,0626;-0,0133;56,35541262;37,50209454;4,09999990;
22:55:43:970;-0,2186;0,0626;-0,0133;56,35541262;37,50209454;4,09999990;
22:55:43:972;-0,2186;0,0626;-0,0133;56,35541262;37,50209454;4,09999990;
22:55:43:974;-0,2186;0,0626;-0,0133;56,35541262;37,50209454;4,09999990;
22:55:43:976;-0,1895;0,0597;-0,0114;56,35541262;37,50209454;4,09999990;
22:55:44:019;-0,1895;0,0597;-0,0114;56,35541262;37,50209454;4,09999990;
22:55:44:022;-0,2259;0,0335;0,0907;56,35541262;37,50209454;4,09999990;
22:55:44:040;-0,2259;0,0335;0,0907;56,35541262;37,50209454;4,09999990;
22:55:44:043;-0,2259;0,0335;0,0907;56,35541262;37,50209454;4,09999990;
22:55:44:045;-0,2259;0,0335;0,0907;56,35541262;37,50209454;4,09999990;
22:55:44:047;-0,2259;0,0335;0,0907;56,35541262;37,50209454;4,09999990;
22:55:44:099;-0,2259;0,0335;0,0907;56,35541262;37,50209454;4,09999990;
22:55:44:121;-0,1957;0,0169;0,1888;56,35541262;37,50209454;4,09999990;
22:55:44:125;-0,1957;0,0169;0,1888;56,35541262;37,50209454;4,09999990;
22:55:44:178;-0,1957;0,0169;0,1888;56,35541262;37,50209454;4,09999990;
22:55:44:181;-0,2137;0,0249;-0,0065;56,35541262;37,50209454;4,09999990;
22:55:44:184;-0,2137;0,0249;-0,0065;56,35541262;37,50209454;4,09999990;
22:55:44:186;-0,2137;0,0249;-0,0065;56,35541262;37,50209454;4,09999990;
22:55:44:187;-0,2137;0,0249;-0,0065;56,35541262;37,50209454;4,09999990;
22:55:44:189;-0,2137;0,0249;-0,0065;56,35541262;37,50209454;4,09999990;
22:55:44:191;-0,2137;0,0249;-0,0065;56,35541262;37,50209454;4,09999990;
22:55:44:231;-0,2137;0,0249;-0,0065;56,35541262;37,50209454;4,09999990;
22:55:44:233;-0,1666;-0,0171;0,0301;56,35541262;37,50209454;4,09999990;
22:55:44:257;-0,1666;-0,0171;0,0301;56,35541262;37,50209454;4,09999990;
22:55:44:260;-0,1666;-0,0171;0,0301;56,35541262;37,50209454;4,09999990;
22:55:44:262;-0,1666;-0,0171;0,0301;56,35541262;37,50209454;4,09999990;
22:55:44:264;-0,1666;-0,0171;0,0301;56,35541262;37,50209454;4,09999990;
22:55:44:312;-0,1666;-0,0171;0,0301;56,35541262;37,50209454;4,09999990;
22:55:44:315;-0,0257;0,0337;-0,0982;56,35541262;37,50209454;4,09999990;
22:55:44:318;-0,0257;0,0337;-0,0982;56,35541262;37,50209454;4,09999990;
22:55:44:319;-0,0257;0,0337;-0,0982;56,35541262;37,50209454;4,09999990;
22:55:44:321;-0,0257;0,0337;-0,0982;56,35541262;37,50209454;4,09999990;
22:55:44:372;-0,0257;0,0337;-0,0982;56,35541262;37,50209454;4,09999990;
22:55:44:375;0,0549;0,0083;0,0934;56,35541262;37,50209454;4,09999990;
22:55:44:393;0,0549;0,0083;0,0934;56,35541262;37,50209454;4,09999990;
22:55:44:396;0,0432;0,0118;0,0923;56,35541262;37,50209454;4,09999990;
22:55:44:399;0,0432;0,0118;0,0923;56,35541262;37,50209454;4,09999990;
22:55:44:400;0,0432;0,0118;0,0923;56,35541262;37,50209454;4,09999990;
22:55:44:402;0,0432;0,0118;0,0923;56,35541262;37,50209454;4,09999990;
22:55:44:404;0,0432;0,0118;0,0923;56,35541262;37,50209454;4,09999990;
22:55:44:452;0,0432;0,0118;0,0923;56,35541262;37,50209454;4,09999990;
22:55:44:454;0,1583;-0,0233;0,2043;56,35541262;37,50209454;4,09999990;
22:55:44:472;0,1583;-0,0233;0,2043;56,35541262;37,50209454;4,09999990;
22:55:44:474;0,1583;-0,0233;0,2043;56,35541262;37,50209454;4,09999990;
22:55:44:477;0,1583;-0,0233;0,2043;56,35541262;37,50209454;4,09999990;
22:55:44:479;0,1583;-0,0233;0,2043;56,35541262;37,50209454;4,09999990;
22:55:44:534;0,1583;-0,0233;0,2043;56,35541262;37,50209454;4,09999990;
22:55:44:537;0,1328;0,0550;-0,1262;56,35541262;37,50209454;4,09999990;
22:55:44:540;0,1328;0,0550;-0,1262;56,35541262;37,50209454;4,09999990;
22:55:44:542;0,1328;0,0550;-0,1262;56,35541262;37,50209454;4,09999990;
22:55:44:544;0,1328;0,0550;-0,1262;56,35541262;37,50209454;4,09999990;
22:55:44:574;0,1328;0,0550;-0,1262;56,35541262;37,50209454;4,09999990;
22:55:44:576;0,1320;0,0529;-0,1242;56,35541262;37,50209454;4,09999990;
22:55:44:613;0,1320;0,0529;-0,1242;56,35541262;37,50209454;4,09999990;
22:55:44:616;0,1320;0,0529;-0,1242;56,35541262;37,50209454;4,09999990;
22:55:44:618;0,1320;0,0529;-0,1242;56,35541262;37,50209454;4,09999990;
22:55:44:619;0,1320;0,0529;-0,1242;56,35541262;37,50209454;4,09999990;
22:55:44:676;0,1320;0,0529;-0,1242;56,35541262;37,50209454;4,09999990;
22:55:44:678;0,0295;0,0278;-0,0570;56,35530978;37,50231210;10,39000034;
22:55:44:690;0,0295;0,0278;-0,0570;56,35530978;37,50231210;10,39000034;
22:55:44:692;0,0258;0,0266;-0,0505;56,35530978;37,50231210;10,39000034;
22:55:44:694;0,0258;0,0266;-0,0505;56,35530978;37,50231210;10,39000034;
22:55:44:695;0,0258;0,0266;-0,0505;56,35530978;37,50231210;10,39000034;
22:55:44:697;0,0258;0,0266;-0,0505;56,35530978;37,50231210;10,39000034;
22:55:44:698;0,0258;0,0266;-0,0505;56,35530978;37,50231210;10,39000034;
22:55:44:742;0,0258;0,0266;-0,0505;56,35530978;37,50231210;10,39000034;
22:55:44:745;0,0853;0,0461;0,0411;56,35530978;37,50231210;10,39000034;
22:55:44:747;0,0853;0,0461;0,0411;56,35530978;37,50231210;10,39000034;
22:55:44:748;0,0853;0,0461;0,0411;56,35530978;37,50231210;10,39000034;
22:55:44:749;0,0853;0,0461;0,0411;56,35530978;37,50231210;10,39000034;
22:55:44:805;0,0853;0,0461;0,0411;56,35530978;37,50231210;10,39000034;
22:55:44:808;0,0488;-0,0164;0,1155;56,35530978;37,50231210;10,39000034;
22:55:44:827;0,0488;-0,0164;0,1155;56,35530978;37,50231210;10,39000034;
22:55:44:830;0,0488;-0,0164;0,1155;56,35530978;37,50231210;10,39000034;
22:55:44:833;0,0488;-0,0164;0,1155;56,35530978;37,50231210;10,39000034;
22:55:44:835;0,0488;-0,0164;0,1155;56,35530978;37,50231210;10,39000034;
22:55:44:897;0,0488;-0,0164;0,1155;56,35530978;37,50231210;10,39000034;
22:55:44:899;0,0488;-0,0164;0,1155;56,35530978;37,50231210;10,39000034;
22:55:44:901;0,0488;-0,0164;0,1155;56,35530978;37,50231210;10,39000034;
22:55:44:903;0,0488;-0,0164;0,1155;56,35530978;37,50231210;10,39000034;
22:55:44:904;0,0757;0,0059;0,2126;56,35530978;37,50231210;10,39000034;
22:55:44:955;0,0757;0,0059;0,2126;56,35530978;37,50231210;10,39000034;
22:55:44:958;0,0587;-0,0537;0,0893;56,35530978;37,50231210;10,39000034;
22:55:44:967;0,0587;-0,0537;0,0893;56,35530978;37,50231210;10,39000034;
22:55:44:970;0,0587;-0,0537;0,0893;56,35530978;37,50231210;10,39000034;
22:55:44:972;0,0587;-0,0537;0,0893;56,35530978;37,50231210;10,39000034;
22:55:45:015;0,0587;-0,0537;0,0893;56,35530978;37,50231210;10,39000034;
22:55:45:018;0,0585;0,0003;-0,0700;56,35530978;37,50231210;10,39000034;
22:55:45:042;0,0585;0,0003;-0,0700;56,35530978;37,50231210;10,39000034;
22:55:45:045;0,0585;0,0003;-0,0700;56,35530978;37,50231210;10,39000034;
22:55:45:048;0,0585;0,0003;-0,0700;56,35530978;37,50231210;10,39000034;
22:55:45:050;0,0585;0,0003;-0,0700;56,35530978;37,50231210;10,39000034;
22:55:45:095;0,0585;0,0003;-0,0700;56,35530978;37,50231210;10,39000034;
22:55:45:098;-0,0189;-0,0473;0,0890;56,35530978;37,50231210;10,39000034;
22:55:45:121;-0,0189;-0,0473;0,0890;56,35530978;37,50231210;10,39000034;
22:55:45:124;-0,0176;-0,0456;0,0788;56,35530978;37,50231210;10,39000034;
22:55:45:127;-0,0176;-0,0456;0,0788;56,35530978;37,50231210;10,39000034;
22:55:45:129;-0,0176;-0,0456;0,0788;56,35530978;37,50231210;10,39000034;
22:55:45:131;-0,0176;-0,0456;0,0788;56,35530978;37,50231210;10,39000034;
22:55:45:133;-0,0176;-0,0456;0,0788;56,35530978;37,50231210;10,39000034;
22:55:45:178;-0,0176;-0,0456;0,0788;56,35530978;37,50231210;10,39000034;
22:55:45:180;-0,0014;-0,0848;0,1111;56,35530978;37,50231210;10,39000034;
22:55:45:183;-0,0014;-0,0848;0,1111;56,35530978;37,50231210;10,39000034;
22:55:45:185;-0,0014;-0,0848;0,1111;56,35530978;37,50231210;10,39000034;
22:55:45:187;-0,0014;-0,0848;0,1111;56,35530978;37,50231210;10,39000034;
22:55:45:237;-0,0014;-0,0848;0,1111;56,35530978;37,50231210;10,39000034;
22:55:45:240;0,0361;0,0055;-0,0384;56,35530978;37,50231210;10,39000034;
22:55:45:258;0,0361;0,0055;-0,0384;56,35530978;37,50231210;10,39000034;
22:55:45:263;0,0361;0,0055;-0,0384;56,35530978;37,50231210;10,39000034;
22:55:45:265;0,0361;0,0055;-0,0384;56,35530978;37,50231210;10,39000034;
22:55:45:267;0,0361;0,0055;-0,0384;56,35530978;37,50231210;10,39000034;
22:55:45:317;0,0361;0,0055;-0,0384;56,35530978;37,50231210;10,39000034;
22:55:45:320;0,0017;-0,0351;-0,0906;56,35530978;37,50231210;10,39000034;
22:55:45:336;0,0017;-0,0351;-0,0906;56,35530978;37,50231210;10,39000034;
22:55:45:338;0,0017;-0,0351;-0,0906;56,35530978;37,50231210;10,39000034;
22:55:45:340;0,0017;-0,0351;-0,0906;56,35530978;37,50231210;10,39000034;
22:55:45:343;0,0017;-0,0351;-0,0906;56,35530978;37,50231210;10,39000034;
22:55:45:358;0,0017;-0,0351;-0,0906;56,35530978;37,50231210;10,39000034;
22:55:45:361;-0,0025;-0,0265;-0,0800;56,35530978;37,50231210;10,39000034;
22:55:45:398;-0,0025;-0,0265;-0,0800;56,35530978;37,50231210;10,39000034;
22:55:45:421;-0,0025;-0,0265;-0,0800;56,35530978;37,50231210;10,39000034;
22:55:45:423;0,0519;0,0217;-0,0521;56,35530978;37,50231210;10,39000034;
22:55:45:476;0,0519;0,0217;-0,0521;56,35530978;37,50231210;10,39000034;
22:55:45:479;0,0519;0,0217;-0,0521;56,35530978;37,50231210;10,39000034;
22:55:45:480;0,0519;0,0217;-0,0521;56,35530978;37,50231210;10,39000034;
22:55:45:482;0,0519;0,0217;-0,0521;56,35530978;37,50231210;10,39000034;
22:55:45:483;0,0519;0,0217;-0,0521;56,35530978;37,50231210;10,39000034;
22:55:45:485;0,0519;0,0217;-0,0521;56,35530978;37,50231210;10,39000034;
22:55:45:486;0,0519;0,0217;-0,0521;56,35530978;37,50231210;10,39000034;
22:55:45:488;0,0969;-0,0135;0,1583;56,35530978;37,50231210;10,39000034;
22:55:45:528;0,0969;-0,0135;0,1583;56,35530978;37,50231210;10,39000034;
22:55:45:531;0,1159;0,0026;-0,0159;56,35530978;37,50231210;10,39000034;
22:55:45:555;0,1159;0,0026;-0,0159;56,35530978;37,50231210;10,39000034;
22:55:45:558;0,1159;0,0026;-0,0159;56,35530978;37,50231210;10,39000034;
22:55:45:561;0,1159;0,0026;-0,0159;56,35530978;37,50231210;10,39000034;
22:55:45:564;0,1159;0,0026;-0,0159;56,35530978;37,50231210;10,39000034;
22:55:45:609;0,1159;0,0026;-0,0159;56,35530978;37,50231210;10,39000034;
22:55:45:612;0,0155;0,0026;-0,1897;56,35530978;37,50231210;10,39000034;
22:55:45:615;0,0155;0,0026;-0,1897;56,35530978;37,50231210;10,39000034;
22:55:45:617;0,0155;0,0026;-0,1897;56,35530978;37,50231210;10,39000034;
22:55:45:618;0,0155;0,0026;-0,1897;56,35530978;37,50231210;10,39000034;
22:55:45:669;0,0155;0,0026;-0,1897;56,35530978;37,50231210;10,39000034;
22:55:45:672;-0,0652;-0,0402;-0,0157;56,35524569;37,50250858;11,10000038;
22:55:45:689;-0,0652;-0,0402;-0,0157;56,35524569;37,50250858;11,10000038;
22:55:45:691;-0,0652;-0,0402;-0,0157;56,35524569;37,50250858;11,10000038;
22:55:45:692;-0,0652;-0,0402;-0,0157;56,35524569;37,50250858;11,10000038;
22:55:45:694;-0,0652;-0,0402;-0,0157;56,35524569;37,50250858;11,10000038;
22:55:45:748;-0,0652;-0,0402;-0,0157;56,35524569;37,50250858;11,10000038;
22:55:45:750;0,0241;-0,0004;-0,0389;56,35524569;37,50250858;11,10000038;
22:55:45:768;0,0241;-0,0004;-0,0389;56,35524569;37,50250858;11,10000038;
22:55:45:770;0,0233;0,0055;-0,0341;56,35524569;37,50250858;11,10000038;
22:55:45:772;0,0233;0,0055;-0,0341;56,35524569;37,50250858;11,10000038;
22:55:45:773;0,0233;0,0055;-0,0341;56,35524569;37,50250858;11,10000038;
22:55:45:774;0,0233;0,0055;-0,0341;56,35524569;37,50250858;11,10000038;
22:55:45:776;0,0233;0,0055;-0,0341;56,35524569;37,50250858;11,10000038;
22:55:45:829;0,0233;0,0055;-0,0341;56,35524569;37,50250858;11,10000038;
22:55:45:832;-0,0073;-0,0033;-0,0877;56,35524569;37,50250858;11,10000038;
22:55:45:834;-0,0073;-0,0033;-0,0877;56,35524569;37,50250858;11,10000038;
22:55:45:836;-0,0073;-0,0033;-0,0877;56,35524569;37,50250858;11,10000038;
22:55:45:837;-0,0073;-0,0033;-0,0877;56,35524569;37,50250858;11,10000038;
22:55:45:908;-0,0073;-0,0033;-0,0877;56,35524569;37,50250858;11,10000038;
22:55:45:911;-0,0114;0,0088;-0,1229;56,35524569;37,50250858;11,10000038;
22:55:45:913;-0,0114;0,0088;-0,1229;56,35524569;37,50250858;11,10000038;
22:55:45:915;-0,0114;0,0088;-0,1229;56,35524569;37,50250858;11,10000038;
22:55:45:916;-0,0114;0,0088;-0,1229;56,35524569;37,50250858;11,10000038;
22:55:45:918;-0,0114;0,0088;-0,1229;56,35524569;37,50250858;11,10000038;
22:55:45:971;-0,0114;0,0088;-0,1229;56,35524569;37,50250858;11,10000038;
22:55:45:974;-0,0789;-0,0103;0,1383;56,35524569;37,50250858;11,10000038;
22:55:45:987;-0,0789;-0,0103;0,1383;56,35524569;37,50250858;11,10000038;
22:55:45:990;-0,0789;-0,0103;0,1383;56,35524569;37,50250858;11,10000038;
22:55:45:991;-0,0789;-0,0103;0,1383;56,35524569;37,50250858;11,10000038;
22:55:46:041;-0,0789;-0,0103;0,1383;56,35524569;37,50250858;11,10000038;
22:55:46:043;-0,2357;-0,0353;0,0180;56,35524569;37,50250858;11,10000038;
22:55:46:049;-0,2357;-0,0353;0,0180;56,35524569;37,50250858;11,10000038;
22:55:46:051;-0,2357;-0,0353;0,0180;56,35524569;37,50250858;11,10000038;
22:55:46:053;-0,2357;-0,0353;0,0180;56,35524569;37,50250858;11,10000038;
22:55:46:100;-0,2357;-0,0353;0,0180;56,35524569;37,50250858;11,10000038;
22:55:46:103;-0,2542;-0,0328;-0,0607;56,35524569;37,50250858;11,10000038;
22:55:46:122;-0,2542;-0,0328;-0,0607;56,35524569;37,50250858;11,10000038;
22:55:46:125;-0,2542;-0,0328;-0,0607;56,35524569;37,50250858;11,10000038;
22:55:46:128;-0,2542;-0,0328;-0,0607;56,35524569;37,50250858;11,10000038;
22:55:46:130;-0,2542;-0,0328;-0,0607;56,35524569;37,50250858;11,10000038;
22:55:46:134;-0,2542;-0,0328;-0,0607;56,35524569;37,50250858;11,10000038;
22:55:46:137;-0,2385;-0,0352;-0,0601;56,35524569;37,50250858;11,10000038;
22:55:46:192;-0,2385;-0,0352;-0,0601;56,35524569;37,50250858;11,10000038;
22:55:46:194;-0,3182;-0,0166;0,0256;56,35524569;37,50250858;11,10000038;
22:55:46:199;-0,3182;-0,0166;0,0256;56,35524569;37,50250858;11,10000038;
22:55:46:201;-0,3182;-0,0166;0,0256;56,35524569;37,50250858;11,10000038;
22:55:46:202;-0,3182;-0,0166;0,0256;56,35524569;37,50250858;11,10000038;
22:55:46:204;-0,3182;-0,0166;0,0256;56,35524569;37,50250858;11,10000038;
22:55:46:251;-0,3182;-0,0166;0,0256;56,35524569;37,50250858;11,10000038;
22:55:46:255;-0,4193;-0,0573;-0,0093;56,35524569;37,50250858;11,10000038;
22:55:46:260;-0,4193;-0,0573;-0,0093;56,35524569;37,50250858;11,10000038;
22:55:46:263;-0,4193;-0,0573;-0,0093;56,35524569;37,50250858;11,10000038;
22:55:46:264;-0,4193;-0,0573;-0,0093;56,35524569;37,50250858;11,10000038;
22:55:46:312;-0,4193;-0,0573;-0,0093;56,35524569;37,50250858;11,10000038;
22:55:46:314;-0,2676;0,0041;-0,1652;56,35524569;37,50250858;11,10000038;
22:55:46:339;-0,2676;0,0041;-0,1652;56,35524569;37,50250858;11,10000038;
22:55:46:341;-0,2676;0,0041;-0,1652;56,35524569;37,50250858;11,10000038;
22:55:46:343;-0,2676;0,0041;-0,1652;56,35524569;37,50250858;11,10000038;
22:55:46:345;-0,2676;0,0041;-0,1652;56,35524569;37,50250858;11,10000038;
22:55:46:392;-0,2676;0,0041;-0,1652;56,35524569;37,50250858;11,10000038;
22:55:46:394;-0,2805;-0,0109;-0,0618;56,35524569;37,50250858;11,10000038;
22:55:46:415;-0,2805;-0,0109;-0,0618;56,35524569;37,50250858;11,10000038;
22:55:46:417;-0,2805;-0,0109;-0,0618;56,35524569;37,50250858;11,10000038;
22:55:46:420;-0,2805;-0,0109;-0,0618;56,35524569;37,50250858;11,10000038;
22:55:46:421;-0,2805;-0,0109;-0,0618;56,35524569;37,50250858;11,10000038;
22:55:46:474;-0,2805;-0,0109;-0,0618;56,35524569;37,50250858;11,10000038;
22:55:46:478;-0,1867;-0,0336;0,0833;56,35524569;37,50250858;11,10000038;
22:55:46:480;-0,1867;-0,0336;0,0833;56,35524569;37,50250858;11,10000038;
22:55:46:482;-0,1867;-0,0336;0,0833;56,35524569;37,50250858;11,10000038;
22:55:46:483;-0,1867;-0,0336;0,0833;56,35524569;37,50250858;11,10000038;
22:55:46:534;-0,1867;-0,0336;0,0833;56,35524569;37,50250858;11,10000038;
22:55:46:537;-0,1652;-0,0056;0,0286;56,35524569;37,50250858;11,10000038;
22:55:46:554;-0,1652;-0,0056;0,0286;56,35524569;37,50250858;11,10000038;
22:55:46:556;-0,1510;-0,0067;0,0252;56,35524569;37,50250858;11,10000038;
22:55:46:559;-0,1510;-0,0067;0,0252;56,35524569;37,50250858;11,10000038;
22:55:46:561;-0,1510;-0,0067;0,0252;56,35524569;37,50250858;11,10000038;
22:55:46:563;-0,1510;-0,0067;0,0252;56,35524569;37,50250858;11,10000038;
22:55:46:565;-0,1510;-0,0067;0,0252;56,35524569;37,50250858;11,10000038;
22:55:46:613;-0,1510;-0,0067;0,0252;56,35524569;37,50250858;11,10000038;
22:55:46:616;-0,0937;0,0031;0,0025;56,35524569;37,50250858;11,10000038;
22:55:46:633;-0,0937;0,0031;0,0025;56,35524569;37,50250858;11,10000038;
22:55:46:637;-0,0937;0,0031;0,0025;56,35524569;37,50250858;11,10000038;
22:55:46:639;-0,0937;0,0031;0,0025;56,35524569;37,50250858;11,10000038;
22:55:46:641;-0,0937;0,0031;0,0025;56,35524569;37,50250858;11,10000038;
22:55:46:693;-0,0937;0,0031;0,0025;56,35524569;37,50250858;11,10000038;
22:55:46:714;-0,0937;0,0031;0,0025;56,35521811;37,50270633;11,81000042;
22:55:46:717;-0,0647;-0,0007;-0,0295;56,35521811;37,50270633;11,81000042;
22:55:46:771;-0,0647;-0,0007;-0,0295;56,35521811;37,50270633;11,81000042;
22:55:46:774;-0,0647;-0,0007;-0,0295;56,35521811;37,50270633;11,81000042;
22:55:46:776;-0,0647;-0,0007;-0,0295;56,35521811;37,50270633;11,81000042;
22:55:46:778;-0,0647;-0,0007;-0,0295;56,35521811;37,50270633;11,81000042;
22:55:46:780;-0,0647;-0,0007;-0,0295;56,35521811;37,50270633;11,81000042;
22:55:46:782;-0,0647;-0,0007;-0,0295;56,35521811;37,50270633;11,81000042;
22:55:46:783;0,0115;-0,0614;0,1523;56,35521811;37,50270633;11,81000042;
22:55:46:824;0,0115;-0,0614;0,1523;56,35521811;37,50270633;11,81000042;
22:55:46:827;-0,0115;0,0202;-0,0814;56,35521811;37,50270633;11,81000042;
22:55:46:855;-0,0115;0,0202;-0,0814;56,35521811;37,50270633;11,81000042;
22:55:46:857;-0,0115;0,0202;-0,0814;56,35521811;37,50270633;11,81000042;
22:55:46:859;-0,0115;0,0202;-0,0814;56,35521811;37,50270633;11,81000042;
22:55:46:861;-0,0115;0,0202;-0,0814;56,35521811;37,50270633;11,81000042;
22:55:46:906;-0,0115;0,0202;-0,0814;56,35521811;37,50270633;11,81000042;
22:55:46:910;0,0961;0,0590;-0,3029;56,35521811;37,50270633;11,81000042;
22:55:46:912;0,0961;0,0590;-0,3029;56,35521811;37,50270633;11,81000042;
22:55:46:914;0,0961;0,0590;-0,3029;56,35521811;37,50270633;11,81000042;
22:55:46:916;0,0961;0,0590;-0,3029;56,35521811;37,50270633;11,81000042;
22:55:46:966;0,0961;0,0590;-0,3029;56,35521811;37,50270633;11,81000042;
22:55:46:968;0,2077;0,0211;-0,2008;56,35521811;37,50270633;11,81000042;
22:55:46:987;0,2077;0,0211;-0,2008;56,35521811;37,50270633;11,81000042;
22:55:46:989;0,2077;0,0211;-0,2008;56,35521811;37,50270633;11,81000042;
22:55:46:991;0,2077;0,0211;-0,2008;56,35521811;37,50270633;11,81000042;
22:55:46:993;0,2077;0,0211;-0,2008;56,35521811;37,50270633;11,81000042;
22:55:46:995;0,2077;0,0211;-0,2008;56,35521811;37,50270633;11,81000042;
22:55:46:998;0,2046;0,0303;-0,1964;56,35521811;37,50270633;11,81000042;
22:55:47:046;0,2046;0,0303;-0,1964;56,35521811;37,50270633;11,81000042;
22:55:47:049;0,3165;-0,0225;0,2012;56,35521811;37,50270633;11,81000042;
22:55:47:066;0,3165;-0,0225;0,2012;56,35521811;37,50270633;11,81000042;
22:55:47:070;0,3165;-0,0225;0,2012;56,35521811;37,50270633;11,81000042;
22:55:47:072;0,3165;-0,0225;0,2012;56,35521811;37,50270633;11,81000042;
22:55:47:074;0,3165;-0,0225;0,2012;56,35521811;37,50270633;11,81000042;
22:55:47:125;0,3165;-0,0225;0,2012;56,35521811;37,50270633;11,81000042;
22:55:47:128;0,2199;-0,0121;0,1347;56,35521811;37,50270633;11,81000042;
22:55:47:130;0,2199;-0,0121;0,1347;56,35521811;37,50270633;11,81000042;
22:55:47:131;0,2199;-0,0121;0,1347;56,35521811;37,50270633;11,81000042;
22:55:47:133;0,2199;-0,0121;0,1347;56,35521811;37,50270633;11,81000042;
22:55:47:169;0,2199;-0,0121;0,1347;56,35521811;37,50270633;11,81000042;
22:55:47:172;0,2180;-0,0183;0,1318;56,35521811;37,50270633;11,81000042;
22:55:47:204;0,2180;-0,0183;0,1318;56,35521811;37,50270633;11,81000042;
22:55:47:207;0,2180;-0,0183;0,1318;56,35521811;37,50270633;11,81000042;
22:55:47:209;0,2180;-0,0183;0,1318;56,35521811;37,50270633;11,81000042;
22:55:47:211;0,2180;-0,0183;0,1318;56,35521811;37,50270633;11,81000042;
22:55:47:257;0,2180;-0,0183;0,1318;56,35521811;37,50270633;11,81000042;
22:55:47:263;0,2085;-0,0046;-0,0323;56,35521811;37,50270633;11,81000042;
22:55:47:282;0,2085;-0,0046;-0,0323;56,35521811;37,50270633;11,81000042;
22:55:47:284;0,1953;-0,0060;-0,0289;56,35521811;37,50270633;11,81000042;
22:55:47:288;0,1953;-0,0060;-0,0289;56,35521811;37,50270633;11,81000042;
22:55:47:290;0,1953;-0,0060;-0,0289;56,35521811;37,50270633;11,81000042;
22:55:47:291;0,1953;-0,0060;-0,0289;56,35521811;37,50270633;11,81000042;
22:55:47:294;0,1953;-0,0060;-0,0289;56,35521811;37,50270633;11,81000042;
22:55:47:338;0,1953;-0,0060;-0,0289;56,35521811;37,50270633;11,81000042;
22:55:47:341;0,1072;-0,0390;0,0734;56,35521811;37,50270633;11,81000042;
22:55:47:343;0,1072;-0,0390;0,0734;56,35521811;37,50270633;11,81000042;
22:55:47:345;0,1072;-0,0390;0,0734;56,35521811;37,50270633;11,81000042;
22:55:47:347;0,1072;-0,0390;0,0734;56,35521811;37,50270633;11,81000042;
22:55:47:399;0,1138;-0,0080;0,0739;56,35521811;37,50270633;11,81000042;
22:55:47:402;0,1138;-0,0080;0,0739;56,35521811;37,50270633;11,81000042;
22:55:47:418;0,1138;-0,0080;0,0739;56,35521811;37,50270633;11,81000042;
22:55:47:421;0,1138;-0,0080;0,0739;56,35521811;37,50270633;11,81000042;
22:55:47:423;0,1138;-0,0080;0,0739;56,35521811;37,50270633;11,81000042;
22:55:47:425;0,1138;-0,0080;0,0739;56,35521811;37,50270633;11,81000042;
22:55:47:489;0,1138;-0,0080;0,0739;56,35521811;37,50270633;11,81000042;
22:55:47:491;0,1138;-0,0080;0,0739;56,35521811;37,50270633;11,81000042;
22:55:47:493;0,1138;-0,0080;0,0739;56,35521811;37,50270633;11,81000042;
22:55:47:495;0,1138;-0,0080;0,0739;56,35521811;37,50270633;11,81000042;
22:55:47:497;0,0112;-0,0635;0,0532;56,35521811;37,50270633;11,81000042;
22:55:47:549;0,0112;-0,0635;0,0532;56,35521811;37,50270633;11,81000042;
22:55:47:552;0,0542;-0,0488;0,0193;56,35521811;37,50270633;11,81000042;
22:55:47:556;0,0542;-0,0488;0,0193;56,35521811;37,50270633;11,81000042;
22:55:47:558;0,0542;-0,0488;0,0193;56,35521811;37,50270633;11,81000042;
22:55:47:559;0,0542;-0,0488;0,0193;56,35521811;37,50270633;11,81000042;
22:55:47:609;0,0542;-0,0488;0,0193;56,35521811;37,50270633;11,81000042;
22:55:47:612;0,0603;-0,1191;0,1590;56,35521811;37,50270633;11,81000042;
22:55:47:636;0,0603;-0,1191;0,1590;56,35521811;37,50270633;11,81000042;
22:55:47:639;0,0603;-0,1191;0,1590;56,35521811;37,50270633;11,81000042;
22:55:47:640;0,0603;-0,1191;0,1590;56,35521811;37,50270633;11,81000042;
22:55:47:646;0,0603;-0,1191;0,1590;56,35521811;37,50270633;11,81000042;
22:55:47:688;0,0603;-0,1191;0,1590;56,35521811;37,50270633;11,81000042;
22:55:47:690;0,0254;-0,2679;-0,0677;56,35518776;37,50292754;12,40999985;
22:55:47:713;0,0254;-0,2679;-0,0677;56,35518776;37,50292754;12,40999985;
22:55:47:715;0,0169;-0,2662;-0,0668;56,35518776;37,50292754;12,40999985;
22:55:47:717;0,0169;-0,2662;-0,0668;56,35518776;37,50292754;12,40999985;
22:55:47:718;0,0169;-0,2662;-0,0668;56,35518776;37,50292754;12,40999985;
22:55:47:720;0,0169;-0,2662;-0,0668;56,35518776;37,50292754;12,40999985;
22:55:47:721;0,0169;-0,2662;-0,0668;56,35518776;37,50292754;12,40999985;
22:55:47:767;0,0169;-0,2662;-0,0668;56,35518776;37,50292754;12,40999985;
22:55:47:770;-0,0324;-0,1231;-0,1839;56,35518776;37,50292754;12,40999985;
22:55:47:772;-0,0324;-0,1231;-0,1839;56,35518776;37,50292754;12,40999985;
22:55:47:773;-0,0324;-0,1231;-0,1839;56,35518776;37,50292754;12,40999985;
22:55:47:774;-0,0324;-0,1231;-0,1839;56,35518776;37,50292754;12,40999985;
22:55:47:830;-0,0324;-0,1231;-0,1839;56,35518776;37,50292754;12,40999985;
22:55:47:833;0,1489;-0,0268;-0,0293;56,35518776;37,50292754;12,40999985;
22:55:47:854;0,1489;-0,0268;-0,0293;56,35518776;37,50292754;12,40999985;
22:55:47:857;0,1489;-0,0268;-0,0293;56,35518776;37,50292754;12,40999985;
22:55:47:858;0,1489;-0,0268;-0,0293;56,35518776;37,50292754;12,40999985;
22:55:47:860;0,1489;-0,0268;-0,0293;56,35518776;37,50292754;12,40999985;
22:55:47:910;0,1489;-0,0268;-0,0293;56,35518776;37,50292754;12,40999985;
22:55:47:913;0,0496;-0,0979;-0,0120;56,35518776;37,50292754;12,40999985;
22:55:47:930;0,0496;-0,0979;-0,0120;56,35518776;37,50292754;12,40999985;
22:55:47:933;0,0496;-0,0979;-0,0120;56,35518776;37,50292754;12,40999985;
22:55:47:935;0,0496;-0,0979;-0,0120;56,35518776;37,50292754;12,40999985;
22:55:47:937;0,0496;-0,0979;-0,0120;56,35518776;37,50292754;12,40999985;
22:55:47:954;0,0496;-0,0979;-0,0120;56,35518776;37,50292754;12,40999985;
22:55:47:959;0,0458;-0,0839;-0,0104;56,35518776;37,50292754;12,40999985;
22:55:47:989;0,0458;-0,0839;-0,0104;56,35518776;37,50292754;12,40999985;
22:55:48:011;0,0458;-0,0839;-0,0104;56,35518776;37,50292754;12,40999985;
22:55:48:014;0,0710;-0,1072;0,0058;56,35518776;37,50292754;12,40999985;
22:55:48:070;0,0710;-0,1072;0,0058;56,35518776;37,50292754;12,40999985;
22:55:48:072;0,0710;-0,1072;0,0058;56,35518776;37,50292754;12,40999985;
22:55:48:074;0,0710;-0,1072;0,0058;56,35518776;37,50292754;12,40999985;
22:55:48:076;0,0710;-0,1072;0,0058;56,35518776;37,50292754;12,40999985;
22:55:48:077;0,0710;-0,1072;0,0058;56,35518776;37,50292754;12,40999985;
22:55:48:079;0,0710;-0,1072;0,0058;56,35518776;37,50292754;12,40999985;
22:55:48:080;0,0710;-0,1072;0,0058;56,35518776;37,50292754;12,40999985;
22:55:48:081;-0,0191;-0,0779;-0,0510;56,35518776;37,50292754;12,40999985;
22:55:48:121;-0,0191;-0,0779;-0,0510;56,35518776;37,50292754;12,40999985;
22:55:48:123;0,0600;-0,1187;0,0573;56,35518776;37,50292754;12,40999985;
22:55:48:148;0,0600;-0,1187;0,0573;56,35518776;37,50292754;12,40999985;
22:55:48:150;0,0600;-0,1187;0,0573;56,35518776;37,50292754;12,40999985;
22:55:48:152;0,0600;-0,1187;0,0573;56,35518776;37,50292754;12,40999985;
22:55:48:153;0,0600;-0,1187;0,0573;56,35518776;37,50292754;12,40999985;
22:55:48:203;0,0600;-0,1187;0,0573;56,35518776;37,50292754;12,40999985;
22:55:48:205;0,0556;-0,0607;-0,0737;56,35518776;37,50292754;12,40999985;
22:55:48:207;0,0556;-0,0607;-0,0737;56,35518776;37,50292754;12,40999985;
22:55:48:209;0,0556;-0,0607;-0,0737;56,35518776;37,50292754;12,40999985;
22:55:48:211;0,0556;-0,0607;-0,0737;56,35518776;37,50292754;12,40999985;
22:55:48:262;0,0556;-0,0607;-0,0737;56,35518776;37,50292754;12,40999985;
22:55:48:265;0,0595;-0,0939;0,1396;56,35518776;37,50292754;12,40999985;
22:55:48:286;0,0595;-0,0939;0,1396;56,35518776;37,50292754;12,40999985;
22:55:48:289;0,0595;-0,0939;0,1396;56,35518776;37,50292754;12,40999985;
22:55:48:291;0,0595;-0,0939;0,1396;56,35518776;37,50292754;12,40999985;
22:55:48:292;0,0595;-0,0939;0,1396;56,35518776;37,50292754;12,40999985;
22:55:48:343;0,0595;-0,0939;0,1396;56,35518776;37,50292754;12,40999985;
22:55:48:346;0,0667;-0,1094;0,0630;56,35518776;37,50292754;12,40999985;
22:55:48:360;0,0667;-0,1094;0,0630;56,35518776;37,50292754;12,40999985;
22:55:48:362;0,0667;-0,1094;0,0630;56,35518776;37,50292754;12,40999985;
22:55:48:363;0,0667;-0,1094;0,0630;56,35518776;37,50292754;12,40999985;
22:55:48:413;0,0667;-0,1094;0,0630;56,35518776;37,50292754;12,40999985;
22:55:48:417;0,2001;-0,0365;0,0559;56,35518776;37,50292754;12,40999985;
22:55:48:422;0,2001;-0,0365;0,0559;56,35518776;37,50292754;12,40999985;
22:55:48:424;0,2001;-0,0365;0,0559;56,35518776;37,50292754;12,40999985;
22:55:48:425;0,2001;-0,0365;0,0559;56,35518776;37,50292754;12,40999985;
22:55:48:465;0,2001;-0,0365;0,0559;56,35518776;37,50292754;12,40999985;
22:55:48:467;0,1167;-0,0767;0,0179;56,35518776;37,50292754;12,40999985;
22:55:48:500;0,1167;-0,0767;0,0179;56,35518776;37,50292754;12,40999985;
22:55:48:502;0,1167;-0,0767;0,0179;56,35518776;37,50292754;12,40999985;
22:55:48:504;0,1167;-0,0767;0,0179;56,35518776;37,50292754;12,40999985;
22:55:48:506;0,1167;-0,0767;0,0179;56,35518776;37,50292754;12,40999985;
22:55:48:507;0,1167;-0,0767;0,0179;56,35518776;37,50292754;12,40999985;
22:55:48:509;0,0995;-0,0757;0,0151;56,35518776;37,50292754;12,40999985;
22:55:48:553;0,0995;-0,0757;0,0151;56,35518776;37,50292754;12,40999985;
22:55:48:555;0,1055;-0,0629;0,0526;56,35518776;37,50292754;12,40999985;
22:55:48:578;0,1055;-0,0629;0,0526;56,35518776;37,50292754;12,40999985;
22:55:48:582;0,1055;-0,0629;0,0526;56,35518776;37,50292754;12,40999985;
22:55:48:584;0,1055;-0,0629;0,0526;56,35518776;37,50292754;12,40999985;
22:55:48:585;0,1055;-0,0629;0,0526;56,35518776;37,50292754;12,40999985;
22:55:48:636;0,1055;-0,0629;0,0526;56,35518776;37,50292754;12,40999985;
22:55:48:639;0,0465;-0,0946;0,0029;56,35518776;37,50292754;12,40999985;
22:55:48:643;0,0465;-0,0946;0,0029;56,35518776;37,50292754;12,40999985;
22:55:48:645;0,0465;-0,0946;0,0029;56,35518776;37,50292754;12,40999985;
22:55:48:647;0,0465;-0,0946;0,0029;56,35518776;37,50292754;12,40999985;
22:55:48:694;0,0465;-0,0946;0,0029;56,35518776;37,50292754;12,40999985;
22:55:48:697;0,1283;-0,0670;0,1578;56,35513855;37,50315464;13,03999996;
22:55:48:718;0,1283;-0,0670;0,1578;56,35513855;37,50315464;13,03999996;
22:55:48:720;0,1283;-0,0670;0,1578;56,35513855;37,50315464;13,03999996;
22:55:48:722;0,1283;-0,0670;0,1578;56,35513855;37,50315464;13,03999996;
22:55:48:723;0,1283;-0,0670;0,1578;56,35513855;37,50315464;13,03999996;
22:55:48:727;0,1104;-0,0662;0,1396;56,35513855;37,50315464;13,03999996;
22:55:48:730;0,1104;-0,0662;0,1396;56,35513855;37,50315464;13,03999996;
22:55:48:783;0,1104;-0,0662;0,1396;56,35513855;37,50315464;13,03999996;
22:55:48:784;0,0001;-0,0637;-0,0500;56,35513855;37,50315464;13,03999996;
22:55:48:786;0,0001;-0,0637;-0,0500;56,35513855;37,50315464;13,03999996;
22:55:48:787;0,0001;-0,0637;-0,0500;56,35513855;37,50315464;13,03999996;
22:55:48:788;0,0001;-0,0637;-0,0500;56,35513855;37,50315464;13,03999996;
22:55:48:789;0,0001;-0,0637;-0,0500;56,35513855;37,50315464;13,03999996;
22:55:48:846;0,0001;-0,0637;-0,0500;56,35513855;37,50315464;13,03999996;
22:55:48:849;0,0872;-0,0666;0,0491;56,35513855;37,50315464;13,03999996;
22:55:48:854;0,0872;-0,0666;0,0491;56,35513855;37,50315464;13,03999996;
22:55:48:856;0,0872;-0,0666;0,0491;56,35513855;37,50315464;13,03999996;
22:55:48:857;0,0872;-0,0666;0,0491;56,35513855;37,50315464;13,03999996;
22:55:48:905;0,0872;-0,0666;0,0491;56,35513855;37,50315464;13,03999996;
22:55:48:908;0,0425;-0,0773;0,0561;56,35513855;37,50315464;13,03999996;
22:55:48:931;0,0425;-0,0773;0,0561;56,35513855;37,50315464;13,03999996;
22:55:48:933;0,0425;-0,0773;0,0561;56,35513855;37,50315464;13,03999996;
22:55:48:935;0,0425;-0,0773;0,0561;56,35513855;37,50315464;13,03999996;
22:55:48:937;0,0425;-0,0773;0,0561;56,35513855;37,50315464;13,03999996;
22:55:48:985;0,0425;-0,0773;0,0561;56,35513855;37,50315464;13,03999996;
22:55:48:988;0,0850;-0,0754;0,2185;56,35513855;37,50315464;13,03999996;
22:55:49:009;0,0850;-0,0754;0,2185;56,35513855;37,50315464;13,03999996;
22:55:49:012;0,0850;-0,0754;0,2185;56,35513855;37,50315464;13,03999996;
22:55:49:014;0,0850;-0,0754;0,2185;56,35513855;37,50315464;13,03999996;
22:55:49:017;0,0850;-0,0754;0,2185;56,35513855;37,50315464;13,03999996;
22:55:49:067;0,0850;-0,0754;0,2185;56,35513855;37,50315464;13,03999996;
22:55:49:069;-0,0315;-0,0874;0,0625;56,35513855;37,50315464;13,03999996;
22:55:49:072;-0,0315;-0,0874;0,0625;56,35513855;37,50315464;13,03999996;
22:55:49:074;-0,0315;-0,0874;0,0625;56,35513855;37,50315464;13,03999996;
22:55:49:076;-0,0315;-0,0874;0,0625;56,35513855;37,50315464;13,03999996;
22:55:49:126;-0,0315;-0,0874;0,0625;56,35513855;37,50315464;13,03999996;
22:55:49:129;0,0776;-0,1160;0,1936;56,35513855;37,50315464;13,03999996;
22:55:49:154;0,0776;-0,1160;0,1936;56,35513855;37,50315464;13,03999996;
22:55:49:156;0,0747;-0,1199;0,1700;56,35513855;37,50315464;13,03999996;
22:55:49:159;0,0747;-0,1199;0,1700;56,35513855;37,50315464;13,03999996;
22:55:49:161;0,0747;-0,1199;0,1700;56,35513855;37,50315464;13,03999996;
22:55:49:165;0,0747;-0,1199;0,1700;56,35513855;37,50315464;13,03999996;
22:55:49:167;0,0747;-0,1199;0,1700;56,35513855;37,50315464;13,03999996;
22:55:49:207;0,0747;-0,1199;0,1700;56,35513855;37,50315464;13,03999996;
22:55:49:209;-0,0221;-0,1762;0,3527;56,35513855;37,50315464;13,03999996;
22:55:49:225;-0,0221;-0,1762;0,3527;56,35513855;37,50315464;13,03999996;
22:55:49:228;-0,0221;-0,1762;0,3527;56,35513855;37,50315464;13,03999996;
22:55:49:230;-0,0221;-0,1762;0,3527;56,35513855;37,50315464;13,03999996;
22:55:49:286;-0,0221;-0,1762;0,3527;56,35513855;37,50315464;13,03999996;
22:55:49:289;-0,0221;-0,1762;0,3527;56,35513855;37,50315464;13,03999996;
22:55:49:309;-0,0221;-0,1762;0,3527;56,35513855;37,50315464;13,03999996;
22:55:49:311;0,0403;-0,1670;0,3044;56,35513855;37,50315464;13,03999996;
22:55:49:365;0,0403;-0,1670;0,3044;56,35513855;37,50315464;13,03999996;
22:55:49:367;0,0403;-0,1670;0,3044;56,35513855;37,50315464;13,03999996;
22:55:49:369;0,0403;-0,1670;0,3044;56,35513855;37,50315464;13,03999996;
22:55:49:371;0,0403;-0,1670;0,3044;56,35513855;37,50315464;13,03999996;
22:55:49:372;0,0403;-0,1670;0,3044;56,35513855;37,50315464;13,03999996;
22:55:49:373;0,0403;-0,1670;0,3044;56,35513855;37,50315464;13,03999996;
22:55:49:375;-0,0206;-0,1744;0,0721;56,35513855;37,50315464;13,03999996;
22:55:49:418;-0,0206;-0,1744;0,0721;56,35513855;37,50315464;13,03999996;
22:55:49:421;-0,0985;-0,1656;-0,0472;56,35513855;37,50315464;13,03999996;
22:55:49:444;-0,0985;-0,1656;-0,0472;56,35513855;37,50315464;13,03999996;
22:55:49:448;-0,0985;-0,1656;-0,0472;56,35513855;37,50315464;13,03999996;
22:55:49:450;-0,0985;-0,1656;-0,0472;56,35513855;37,50315464;13,03999996;
22:55:49:452;-0,0985;-0,1656;-0,0472;56,35513855;37,50315464;13,03999996;
22:55:49:499;-0,0985;-0,1656;-0,0472;56,35513855;37,50315464;13,03999996;
22:55:49:502;-0,0413;-0,1606;0,0340;56,35513855;37,50315464;13,03999996;
22:55:49:505;-0,0413;-0,1606;0,0340;56,35513855;37,50315464;13,03999996;
22:55:49:506;-0,0413;-0,1606;0,0340;56,35513855;37,50315464;13,03999996;
22:55:49:508;-0,0413;-0,1606;0,0340;56,35513855;37,50315464;13,03999996;
22:55:49:559;-0,0413;-0,1606;0,0340;56,35513855;37,50315464;13,03999996;
22:55:49:562;-0,0683;-0,1451;-0,0674;56,35513855;37,50315464;13,03999996;
22:55:49:581;-0,0683;-0,1451;-0,0674;56,35513855;37,50315464;13,03999996;
22:55:49:584;-0,0566;-0,1490;-0,0672;56,35513855;37,50315464;13,03999996;
22:55:49:587;-0,0566;-0,1490;-0,0672;56,35513855;37,50315464;13,03999996;
22:55:49:589;-0,0566;-0,1490;-0,0672;56,35513855;37,50315464;13,03999996;
22:55:49:591;-0,0566;-0,1490;-0,0672;56,35513855;37,50315464;13,03999996;
22:55:49:593;-0,0566;-0,1490;-0,0672;56,35513855;37,50315464;13,03999996;
22:55:49:642;-0,0566;-0,1490;-0,0672;56,35513855;37,50315464;13,03999996;
22:55:49:645;-0,1027;-0,1798;0,1302;56,35513855;37,50315464;13,03999996;
22:55:49:658;-0,1027;-0,1798;0,1302;56,35513855;37,50315464;13,03999996;
22:55:49:659;-0,1027;-0,1798;0,1302;56,35510091;37,50333422;13,27999973;
22:55:49:661;-0,1027;-0,1798;0,1302;56,35510091;37,50333422;13,27999973;
22:55:49:663;-0,1027;-0,1798;0,1302;56,35510091;37,50333422;13,27999973;
22:55:49:709;-0,1027;-0,1798;0,1302;56,35510091;37,50333422;13,27999973;
22:55:49:711;-0,0918;-0,1487;-0,1040;56,35510091;37,50333422;13,27999973;
22:55:49:716;-0,0918;-0,1487;-0,1040;56,35510091;37,50333422;13,27999973;
22:55:49:717;-0,0918;-0,1487;-0,1040;56,35510091;37,50333422;13,27999973;
22:55:49:719;-0,0918;-0,1487;-0,1040;56,35510091;37,50333422;13,27999973;
22:55:49:761;-0,0918;-0,1487;-0,1040;56,35510091;37,50333422;13,27999973;
22:55:49:764;-0,0800;-0,1464;-0,0940;56,35510091;37,50333422;13,27999973;
22:55:49:794;-0,0800;-0,1464;-0,0940;56,35510091;37,50333422;13,27999973;
22:55:49:797;-0,0800;-0,1464;-0,0940;56,35510091;37,50333422;13,27999973;
22:55:49:799;-0,0800;-0,1464;-0,0940;56,35510091;37,50333422;13,27999973;
22:55:49:801;-0,0800;-0,1464;-0,0940;56,35510091;37,50333422;13,27999973;
22:55:49:850;-0,0800;-0,1464;-0,0940;56,35510091;37,50333422;13,27999973;
22:55:49:853;-0,1521;-0,1159;-0,2434;56,35510091;37,50333422;13,27999973;
22:55:49:873;-0,1521;-0,1159;-0,2434;56,35510091;37,50333422;13,27999973;
22:55:49:876;-0,1472;-0,1170;-0,2397;56,35510091;37,50333422;13,27999973;
22:55:49:880;-0,1472;-0,1170;-0,2397;56,35510091;37,50333422;13,27999973;
22:55:49:882;-0,1472;-0,1170;-0,2397;56,35510091;37,50333422;13,27999973;
22:55:49:884;-0,1472;-0,1170;-0,2397;56,35510091;37,50333422;13,27999973;
22:55:49:886;-0,1472;-0,1170;-0,2397;56,35510091;37,50333422;13,27999973;
22:55:49:931;-0,1472;-0,1170;-0,2397;56,35510091;37,50333422;13,27999973;
22:55:49:934;-0,0221;-0,1124;-0,1346;56,35510091;37,50333422;13,27999973;
22:55:49:936;-0,0221;-0,1124;-0,1346;56,35510091;37,50333422;13,27999973;
22:55:49:937;-0,0221;-0,1124;-0,1346;56,35510091;37,50333422;13,27999973;
22:55:49:939;-0,0221;-0,1124;-0,1346;56,35510091;37,50333422;13,27999973;
22:55:49:992;-0,0221;-0,1124;-0,1346;56,35510091;37,50333422;13,27999973;
22:55:49:994;0,0321;-0,0957;-0,1671;56,35510091;37,50333422;13,27999973;
22:55:50:011;0,0321;-0,0957;-0,1671;56,35510091;37,50333422;13,27999973;
22:55:50:013;0,0321;-0,0957;-0,1671;56,35510091;37,50333422;13,27999973;
22:55:50:014;0,0321;-0,0957;-0,1671;56,35510091;37,50333422;13,27999973;
22:55:50:016;0,0321;-0,0957;-0,1671;56,35510091;37,50333422;13,27999973;
22:55:50:081;0,0321;-0,0957;-0,1671;56,35510091;37,50333422;13,27999973;
22:55:50:084;0,0517;-0,0646;-0,1468;56,35510091;37,50333422;13,27999973;
22:55:50:087;0,0517;-0,0646;-0,1468;56,35510091;37,50333422;13,27999973;
22:55:50:088;0,0517;-0,0646;-0,1468;56,35510091;37,50333422;13,27999973;
22:55:50:090;0,0517;-0,0646;-0,1468;56,35510091;37,50333422;13,27999973;
22:55:50:142;0,0517;-0,0646;-0,1468;56,35510091;37,50333422;13,27999973;
22:55:50:145;-0,0485;-0,1611;0,0286;56,35510091;37,50333422;13,27999973;
22:55:50:149;-0,0485;-0,1611;0,0286;56,35510091;37,50333422;13,27999973;
22:55:50:151;-0,0485;-0,1611;0,0286;56,35510091;37,50333422;13,27999973;
22:55:50:152;-0,0485;-0,1611;0,0286;56,35510091;37,50333422;13,27999973;
22:55:50:202;-0,0485;-0,1611;0,0286;56,35510091;37,50333422;13,27999973;
22:55:50:206;0,0419;-0,0879;-0,0951;56,35510091;37,50333422;13,27999973;
22:55:50:226;0,0419;-0,0879;-0,0951;56,35510091;37,50333422;13,27999973;
22:55:50:230;0,0419;-0,0879;-0,0951;56,35510091;37,50333422;13,27999973;
22:55:50:233;0,0419;-0,0879;-0,0951;56,35510091;37,50333422;13,27999973;
22:55:50:235;0,0419;-0,0879;-0,0951;56,35510091;37,50333422;13,27999973;
22:55:50:285;0,0419;-0,0879;-0,0951;56,35510091;37,50333422;13,27999973;
22:55:50:288;0,0520;-0,0652;-0,2184;56,35510091;37,50333422;13,27999973;
22:55:50:305;0,0524;-0,0606;-0,1946;56,35510091;37,50333422;13,27999973;
22:55:50:308;0,0524;-0,0606;-0,1946;56,35510091;37,50333422;13,27999973;
22:55:50:311;0,0524;-0,0606;-0,1946;56,35510091;37,50333422;13,27999973;
22:55:50:314;0,0524;-0,0606;-0,1946;56,35510091;37,50333422;13,27999973;
22:55:50:317;0,0524;-0,0606;-0,1946;56,35510091;37,50333422;13,27999973;
22:55:50:318;0,0524;-0,0606;-0,1946;56,35510091;37,50333422;13,27999973;
22:55:50:363;0,0524;-0,0606;-0,1946;56,35510091;37,50333422;13,27999973;
22:55:50:367;0,0513;-0,0133;-0,2916;56,35510091;37,50333422;13,27999973;
22:55:50:369;0,0513;-0,0133;-0,2916;56,35510091;37,50333422;13,27999973;
22:55:50:371;0,0513;-0,0133;-0,2916;56,35510091;37,50333422;13,27999973;
22:55:50:373;0,0513;-0,0133;-0,2916;56,35510091;37,50333422;13,27999973;
22:55:50:424;0,0513;-0,0133;-0,2916;56,35510091;37,50333422;13,27999973;
22:55:50:427;-0,0727;-0,0076;-0,4030;56,35510091;37,50333422;13,27999973;
22:55:50:443;-0,0727;-0,0076;-0,4030;56,35510091;37,50333422;13,27999973;
22:55:50:446;-0,0727;-0,0076;-0,4030;56,35510091;37,50333422;13,27999973;
22:55:50:448;-0,0727;-0,0076;-0,4030;56,35510091;37,50333422;13,27999973;
22:55:50:451;-0,0727;-0,0076;-0,4030;56,35510091;37,50333422;13,27999973;
22:55:50:504;-0,0727;-0,0076;-0,4030;56,35510091;37,50333422;13,27999973;
22:55:50:506;-0,1214;-0,0583;-0,2003;56,35510091;37,50333422;13,27999973;
22:55:50:521;-0,1214;-0,0583;-0,2003;56,35510091;37,50333422;13,27999973;
22:55:50:525;-0,1214;-0,0583;-0,2003;56,35510091;37,50333422;13,27999973;
22:55:50:527;-0,1214;-0,0583;-0,2003;56,35510091;37,50333422;13,27999973;
22:55:50:530;-0,1214;-0,0583;-0,2003;56,35510091;37,50333422;13,27999973;
22:55:50:546;-0,1214;-0,0583;-0,2003;56,35510091;37,50333422;13,27999973;
22:55:50:549;-0,1183;-0,0441;-0,1770;56,35510091;37,50333422;13,27999973;
22:55:50:582;-0,1183;-0,0441;-0,1770;56,35510091;37,50333422;13,27999973;
22:55:50:605;-0,1183;-0,0441;-0,1770;56,35510091;37,50333422;13,27999973;
22:55:50:608;0,0519;0,0651;-0,4379;56,35510091;37,50333422;13,27999973;
22:55:50:659;0,0519;0,0651;-0,4379;56,35510091;37,50333422;13,27999973;
22:55:50:662;0,0519;0,0651;-0,4379;56,35506039;37,50351887;13,31999969;
22:55:50:664;0,0519;0,0651;-0,4379;56,35506039;37,50351887;13,31999969;
22:55:50:666;0,0519;0,0651;-0,4379;56,35506039;37,50351887;13,31999969;
22:55:50:667;0,0519;0,0651;-0,4379;56,35506039;37,50351887;13,31999969;
22:55:50:668;0,0519;0,0651;-0,4379;56,35506039;37,50351887;13,31999969;
22:55:50:669;0,0519;0,0651;-0,4379;56,35506039;37,50351887;13,31999969;
22:55:50:671;-0,0420;0,0404;-0,3581;56,35506039;37,50351887;13,31999969;
22:55:50:714;-0,0420;0,0404;-0,3581;56,35506039;37,50351887;13,31999969;
22:55:50:716;-0,0412;0,0470;-0,3732;56,35506039;37,50351887;13,31999969;
22:55:50:738;-0,0412;0,0470;-0,3732;56,35506039;37,50351887;13,31999969;
22:55:50:739;-0,0412;0,0470;-0,3732;56,35506039;37,50351887;13,31999969;
22:55:50:741;-0,0412;0,0470;-0,3732;56,35506039;37,50351887;13,31999969;
22:55:50:742;-0,0412;0,0470;-0,3732;56,35506039;37,50351887;13,31999969;
22:55:50:793;-0,0412;0,0470;-0,3732;56,35506039;37,50351887;13,31999969;
22:55:50:797;0,0025;0,0346;-0,1510;56,35506039;37,50351887;13,31999969;
22:55:50:799;0,0025;0,0346;-0,1510;56,35506039;37,50351887;13,31999969;
22:55:50:801;0,0025;0,0346;-0,1510;56,35506039;37,50351887;13,31999969;
22:55:50:802;0,0025;0,0346;-0,1510;56,35506039;37,50351887;13,31999969;
22:55:50:866;0,0025;0,0346;-0,1510;56,35506039;37,50351887;13,31999969;
22:55:50:869;-0,0092;0,0346;-0,2665;56,35506039;37,50351887;13,31999969;
22:55:50:871;-0,0092;0,0346;-0,2665;56,35506039;37,50351887;13,31999969;
22:55:50:872;-0,0092;0,0346;-0,2665;56,35506039;37,50351887;13,31999969;
22:55:50:874;-0,0092;0,0346;-0,2665;56,35506039;37,50351887;13,31999969;
22:55:50:927;-0,0092;0,0346;-0,2665;56,35506039;37,50351887;13,31999969;
22:55:50:929;0,0746;0,0955;-0,2282;56,35506039;37,50351887;13,31999969;
22:55:50:944;0,0746;0,0955;-0,2282;56,35506039;37,50351887;13,31999969;
22:55:50:947;0,0746;0,0955;-0,2282;56,35506039;37,50351887;13,31999969;
22:55:50:948;0,0746;0,0955;-0,2282;56,35506039;37,50351887;13,31999969;
22:55:50:950;0,0746;0,0955;-0,2282;56,35506039;37,50351887;13,31999969;
22:55:51:006;0,0746;0,0955;-0,2282;56,35506039;37,50351887;13,31999969;
22:55:51:010;-0,0555;0,0092;-0,1295;56,35506039;37,50351887;13,31999969;
22:55:51:012;-0,0555;0,0092;-0,1295;56,35506039;37,50351887;13,31999969;
22:55:51:014;-0,0555;0,0092;-0,1295;56,35506039;37,50351887;13,31999969;
22:55:51:016;-0,0555;0,0092;-0,1295;56,35506039;37,50351887;13,31999969;
22:55:51:067;-0,0555;0,0092;-0,1295;56,35506039;37,50351887;13,31999969;
22:55:51:070;0,0047;0,0465;-0,0944;56,35506039;37,50351887;13,31999969;
22:55:51:091;0,0047;0,0465;-0,0944;56,35506039;37,50351887;13,31999969;
22:55:51:094;0,0047;0,0465;-0,0944;56,35506039;37,50351887;13,31999969;
22:55:51:097;0,0047;0,0465;-0,0944;56,35506039;37,50351887;13,31999969;
22:55:51:099;0,0047;0,0465;-0,0944;56,35506039;37,50351887;13,31999969;
22:55:51:101;0,0047;0,0465;-0,0944;56,35506039;37,50351887;13,31999969;
22:55:51:103;0,0094;0,0485;-0,0831;56,35506039;37,50351887;13,31999969;
22:55:51:147;0,0094;0,0485;-0,0831;56,35506039;37,50351887;13,31999969;
22:55:51:150;-0,0420;-0,0150;0,2049;56,35506039;37,50351887;13,31999969;
22:55:51:170;-0,0420;-0,0150;0,2049;56,35506039;37,50351887;13,31999969;
22:55:51:172;-0,0420;-0,0150;0,2049;56,35506039;37,50351887;13,31999969;
22:55:51:174;-0,0420;-0,0150;0,2049;56,35506039;37,50351887;13,31999969;
22:55:51:176;-0,0420;-0,0150;0,2049;56,35506039;37,50351887;13,31999969;
22:55:51:227;-0,0420;-0,0150;0,2049;56,35506039;37,50351887;13,31999969;
22:55:51:232;-0,0777;-0,0554;0,3066;56,35506039;37,50351887;13,31999969;
22:55:51:235;-0,0777;-0,0554;0,3066;56,35506039;37,50351887;13,31999969;
22:55:51:237;-0,0777;-0,0554;0,3066;56,35506039;37,50351887;13,31999969;
22:55:51:238;-0,0777;-0,0554;0,3066;56,35506039;37,50351887;13,31999969;
22:55:51:288;-0,0777;-0,0554;0,3066;56,35506039;37,50351887;13,31999969;
22:55:51:290;-0,1355;-0,0399;0,0474;56,35506039;37,50351887;13,31999969;
22:55:51:307;-0,1355;-0,0399;0,0474;56,35506039;37,50351887;13,31999969;
22:55:51:309;-0,1355;-0,0399;0,0474;56,35506039;37,50351887;13,31999969;
22:55:51:312;-0,1355;-0,0399;0,0474;56,35506039;37,50351887;13,31999969;
22:55:51:316;-0,1355;-0,0399;0,0474;56,35506039;37,50351887;13,31999969;
22:55:51:328;-0,1355;-0,0399;0,0474;56,35506039;37,50351887;13,31999969;
22:55:51:329;-0,1386;-0,0510;0,0453;56,35506039;37,50351887;13,31999969;
22:55:51:385;-0,1386;-0,0510;0,0453;56,35506039;37,50351887;13,31999969;
22:55:51:388;-0,1386;-0,0510;0,0453;56,35506039;37,50351887;13,31999969;
22:55:51:390;-0,1386;-0,0510;0,0453;56,35506039;37,50351887;13,31999969;
22:55:51:392;-0,1386;-0,0510;0,0453;56,35506039;37,50351887;13,31999969;
22:55:51:394;-0,1386;-0,0510;0,0453;56,35506039;37,50351887;13,31999969;
22:55:51:396;-0,0314;0,0150;-0,1433;56,35506039;37,50351887;13,31999969;
22:55:51:439;-0,0314;0,0150;-0,1433;56,35506039;37,50351887;13,31999969;
22:55:51:441;-0,0044;0,0484;-0,1770;56,35506039;37,50351887;13,31999969;
22:55:51:445;-0,0044;0,0484;-0,1770;56,35506039;37,50351887;13,31999969;
22:55:51:447;-0,0044;0,0484;-0,1770;56,35506039;37,50351887;13,31999969;
22:55:51:448;-0,0044;0,0484;-0,1770;56,35506039;37,50351887;13,31999969;
22:55:51:499;-0,0044;0,0484;-0,1770;56,35506039;37,50351887;13,31999969;
22:55:51:501;0,0041;0,1237;-0,3280;56,35506039;37,50351887;13,31999969;
22:55:51:524;0,0041;0,1237;-0,3280;56,35506039;37,50351887;13,31999969;
22:55:51:526;0,0041;0,1237;-0,3280;56,35506039;37,50351887;13,31999969;
22:55:51:530;0,0041;0,1237;-0,3280;56,35506039;37,50351887;13,31999969;
22:55:51:532;0,0041;0,1237;-0,3280;56,35506039;37,50351887;13,31999969;
22:55:51:579;0,0041;0,1237;-0,3280;56,35506039;37,50351887;13,31999969;
22:55:51:581;0,1744;0,1420;-0,4480;56,35506039;37,50351887;13,31999969;
22:55:51:606;0,1744;0,1420;-0,4480;56,35506039;37,50351887;13,31999969;
22:55:51:609;0,1744;0,1420;-0,4480;56,35506039;37,50351887;13,31999969;
22:55:51:611;0,1744;0,1420;-0,4480;56,35506039;37,50351887;13,31999969;
22:55:51:613;0,1744;0,1420;-0,4480;56,35506039;37,50351887;13,31999969;
22:55:51:660;0,1744;0,1420;-0,4480;56,35506039;37,50351887;13,31999969;
22:55:51:662;0,3141;0,1685;-0,3184;56,35502467;37,50372716;13,43999958;
22:55:51:664;0,3141;0,1685;-0,3184;56,35502467;37,50372716;13,43999958;
22:55:51:665;0,3141;0,1685;-0,3184;56,35502467;37,50372716;13,43999958;
22:55:51:666;0,3141;0,1685;-0,3184;56,35502467;37,50372716;13,43999958;
22:55:51:719;0,3141;0,1685;-0,3184;56,35502467;37,50372716;13,43999958;
22:55:51:721;0,1312;0,1777;-0,4525;56,35502467;37,50372716;13,43999958;
22:55:51:740;0,1206;0,1820;-0,4438;56,35502467;37,50372716;13,43999958;
22:55:51:742;0,1206;0,1820;-0,4438;56,35502467;37,50372716;13,43999958;
22:55:51:744;0,1206;0,1820;-0,4438;56,35502467;37,50372716;13,43999958;
22:55:51:745;0,1206;0,1820;-0,4438;56,35502467;37,50372716;13,43999958;
22:55:51:747;0,1206;0,1820;-0,4438;56,35502467;37,50372716;13,43999958;
22:55:51:749;0,1206;0,1820;-0,4438;56,35502467;37,50372716;13,43999958;
22:55:51:799;0,1206;0,1820;-0,4438;56,35502467;37,50372716;13,43999958;
22:55:51:802;0,1847;0,1396;-0,1508;56,35502467;37,50372716;13,43999958;
22:55:51:818;0,1847;0,1396;-0,1508;56,35502467;37,50372716;13,43999958;
22:55:51:820;0,1847;0,1396;-0,1508;56,35502467;37,50372716;13,43999958;
22:55:51:822;0,1847;0,1396;-0,1508;56,35502467;37,50372716;13,43999958;
22:55:51:879;0,1847;0,1396;-0,1508;56,35502467;37,50372716;13,43999958;
22:55:51:881;0,1847;0,1396;-0,1508;56,35502467;37,50372716;13,43999958;
22:55:51:905;0,2475;0,1257;-0,0950;56,35502467;37,50372716;13,43999958;
22:55:51:909;0,2475;0,1257;-0,0950;56,35502467;37,50372716;13,43999958;
22:55:51:957;0,2475;0,1257;-0,0950;56,35502467;37,50372716;13,43999958;
22:55:51:961;0,2747;0,1958;-0,0272;56,35502467;37,50372716;13,43999958;
22:55:51:963;0,2747;0,1958;-0,0272;56,35502467;37,50372716;13,43999958;
22:55:51:964;0,2747;0,1958;-0,0272;56,35502467;37,50372716;13,43999958;
22:55:51:966;0,2747;0,1958;-0,0272;56,35502467;37,50372716;13,43999958;
22:55:51:967;0,2747;0,1958;-0,0272;56,35502467;37,50372716;13,43999958;
22:55:51:969;0,2747;0,1958;-0,0272;56,35502467;37,50372716;13,43999958;
22:55:52:011;0,2747;0,1958;-0,0272;56,35502467;37,50372716;13,43999958;
22:55:52:014;0,1638;0,1853;-0,2115;56,35502467;37,50372716;13,43999958;
22:55:52:039;0,1638;0,1853;-0,2115;56,35502467;37,50372716;13,43999958;
22:55:52:041;0,1638;0,1853;-0,2115;56,35502467;37,50372716;13,43999958;
22:55:52:044;0,1638;0,1853;-0,2115;56,35502467;37,50372716;13,43999958;
22:55:52:046;0,1638;0,1853;-0,2115;56,35502467;37,50372716;13,43999958;
22:55:52:093;0,1638;0,1853;-0,2115;56,35502467;37,50372716;13,43999958;
22:55:52:095;0,2481;0,1701;-0,1553;56,35502467;37,50372716;13,43999958;
22:55:52:098;0,2481;0,1701;-0,1553;56,35502467;37,50372716;13,43999958;
22:55:52:100;0,2481;0,1701;-0,1553;56,35502467;37,50372716;13,43999958;
22:55:52:101;0,2481;0,1701;-0,1553;56,35502467;37,50372716;13,43999958;
22:55:52:152;0,2481;0,1701;-0,1553;56,35502467;37,50372716;13,43999958;
22:55:52:156;0,0572;0,1563;-0,0712;56,35502467;37,50372716;13,43999958;
22:55:52:172;0,0572;0,1563;-0,0712;56,35502467;37,50372716;13,43999958;
22:55:52:175;0,0504;0,1505;-0,0617;56,35502467;37,50372716;13,43999958;
22:55:52:178;0,0504;0,1505;-0,0617;56,35502467;37,50372716;13,43999958;
22:55:52:181;0,0504;0,1505;-0,0617;56,35502467;37,50372716;13,43999958;
22:55:52:184;0,0504;0,1505;-0,0617;56,35502467;37,50372716;13,43999958;
22:55:52:186;0,0504;0,1505;-0,0617;56,35502467;37,50372716;13,43999958;
22:55:52:233;0,0504;0,1505;-0,0617;56,35502467;37,50372716;13,43999958;
22:55:52:235;0,0958;0,0984;0,0598;56,35502467;37,50372716;13,43999958;
22:55:52:250;0,0958;0,0984;0,0598;56,35502467;37,50372716;13,43999958;
22:55:52:253;0,0958;0,0984;0,0598;56,35502467;37,50372716;13,43999958;
22:55:52:255;0,0958;0,0984;0,0598;56,35502467;37,50372716;13,43999958;
22:55:52:257;0,0958;0,0984;0,0598;56,35502467;37,50372716;13,43999958;
22:55:52:303;0,0958;0,0984;0,0598;56,35502467;37,50372716;13,43999958;
22:55:52:305;0,0365;0,1408;-0,0882;56,35502467;37,50372716;13,43999958;
22:55:52:309;0,0365;0,1408;-0,0882;56,35502467;37,50372716;13,43999958;
22:55:52:310;0,0365;0,1408;-0,0882;56,35502467;37,50372716;13,43999958;
22:55:52:312;0,0365;0,1408;-0,0882;56,35502467;37,50372716;13,43999958;
22:55:52:356;0,0365;0,1408;-0,0882;56,35502467;37,50372716;13,43999958;
22:55:52:358;0,0407;0,1399;-0,0867;56,35502467;37,50372716;13,43999958;
22:55:52:388;0,0407;0,1399;-0,0867;56,35502467;37,50372716;13,43999958;
22:55:52:390;0,0407;0,1399;-0,0867;56,35502467;37,50372716;13,43999958;
22:55:52:392;0,0407;0,1399;-0,0867;56,35502467;37,50372716;13,43999958;
22:55:52:393;0,0407;0,1399;-0,0867;56,35502467;37,50372716;13,43999958;
22:55:52:444;0,0407;0,1399;-0,0867;56,35502467;37,50372716;13,43999958;
22:55:52:447;0,0143;0,1157;-0,0999;56,35502467;37,50372716;13,43999958;
22:55:52:467;0,0135;0,1191;-0,0867;56,35502467;37,50372716;13,43999958;
22:55:52:471;0,0135;0,1191;-0,0867;56,35502467;37,50372716;13,43999958;
22:55:52:473;0,0135;0,1191;-0,0867;56,35502467;37,50372716;13,43999958;
22:55:52:475;0,0135;0,1191;-0,0867;56,35502467;37,50372716;13,43999958;
22:55:52:478;0,0135;0,1191;-0,0867;56,35502467;37,50372716;13,43999958;
22:55:52:480;0,0135;0,1191;-0,0867;56,35502467;37,50372716;13,43999958;
22:55:52:526;0,0135;0,1191;-0,0867;56,35502467;37,50372716;13,43999958;
22:55:52:529;0,0096;0,1914;-0,3084;56,35502467;37,50372716;13,43999958;
22:55:52:531;0,0096;0,1914;-0,3084;56,35502467;37,50372716;13,43999958;
22:55:52:532;0,0096;0,1914;-0,3084;56,35502467;37,50372716;13,43999958;
22:55:52:534;0,0096;0,1914;-0,3084;56,35502467;37,50372716;13,43999958;
22:55:52:585;0,0096;0,1914;-0,3084;56,35502467;37,50372716;13,43999958;
22:55:52:588;-0,0575;0,1571;-0,1592;56,35502467;37,50372716;13,43999958;
22:55:52:608;-0,0575;0,1571;-0,1592;56,35502467;37,50372716;13,43999958;
22:55:52:610;-0,0575;0,1571;-0,1592;56,35502467;37,50372716;13,43999958;
22:55:52:612;-0,0575;0,1571;-0,1592;56,35502467;37,50372716;13,43999958;
22:55:52:615;-0,0575;0,1571;-0,1592;56,35502467;37,50372716;13,43999958;
22:55:52:674;-0,0575;0,1571;-0,1592;56,35502467;37,50372716;13,43999958;
22:55:52:676;-0,0883;0,1470;0,0836;56,35498756;37,50390875;13,60000038;
22:55:52:678;-0,0883;0,1470;0,0836;56,35498756;37,50390875;13,60000038;
22:55:52:679;-0,0883;0,1470;0,0836;56,35498756;37,50390875;13,60000038;
22:55:52:681;-0,0883;0,1470;0,0836;56,35498756;37,50390875;13,60000038;
22:55:52:734;-0,0883;0,1470;0,0836;56,35498756;37,50390875;13,60000038;
22:55:52:737;-0,1263;0,1375;-0,0119;56,35498756;37,50390875;13,60000038;
22:55:52:740;-0,1263;0,1375;-0,0119;56,35498756;37,50390875;13,60000038;
22:55:52:741;-0,1263;0,1375;-0,0119;56,35498756;37,50390875;13,60000038;
22:55:52:742;-0,1263;0,1375;-0,0119;56,35498756;37,50390875;13,60000038;
22:55:52:795;-0,1263;0,1375;-0,0119;56,35498756;37,50390875;13,60000038;
22:55:52:798;-0,0354;0,1285;0,1489;56,35498756;37,50390875;13,60000038;
22:55:52:809;-0,0354;0,1285;0,1489;56,35498756;37,50390875;13,60000038;
22:55:52:811;-0,0354;0,1285;0,1489;56,35498756;37,50390875;13,60000038;
22:55:52:813;-0,0354;0,1285;0,1489;56,35498756;37,50390875;13,60000038;
22:55:52:814;-0,0354;0,1285;0,1489;56,35498756;37,50390875;13,60000038;
22:55:52:866;-0,0354;0,1285;0,1489;56,35498756;37,50390875;13,60000038;
22:55:52:869;-0,1064;0,0868;0,3063;56,35498756;37,50390875;13,60000038;
22:55:52:878;-0,1064;0,0868;0,3063;56,35498756;37,50390875;13,60000038;
22:55:52:880;-0,1064;0,0868;0,3063;56,35498756;37,50390875;13,60000038;
22:55:52:881;-0,1064;0,0868;0,3063;56,35498756;37,50390875;13,60000038;
22:55:52:936;-0,1064;0,0868;0,3063;56,35498756;37,50390875;13,60000038;
22:55:52:939;-0,0672;0,0743;0,2894;56,35498756;37,50390875;13,60000038;
22:55:52:957;-0,0672;0,0743;0,2894;56,35498756;37,50390875;13,60000038;
22:55:52:959;-0,0672;0,0743;0,2894;56,35498756;37,50390875;13,60000038;
22:55:52:961;-0,0672;0,0743;0,2894;56,35498756;37,50390875;13,60000038;
22:55:52:963;-0,0672;0,0743;0,2894;56,35498756;37,50390875;13,60000038;
22:55:52:966;-0,0672;0,0743;0,2894;56,35498756;37,50390875;13,60000038;
22:55:52:968;-0,0713;0,0696;0,2843;56,35498756;37,50390875;13,60000038;
22:55:53:017;-0,0713;0,0696;0,2843;56,35498756;37,50390875;13,60000038;
22:55:53:020;-0,0993;0,0973;0,3342;56,35498756;37,50390875;13,60000038;
22:55:53:077;-0,0993;0,0973;0,3342;56,35498756;37,50390875;13,60000038;
22:55:53:081;-0,0993;0,0973;0,3342;56,35498756;37,50390875;13,60000038;
22:55:53:082;-0,0993;0,0973;0,3342;56,35498756;37,50390875;13,60000038;
22:55:53:084;-0,0993;0,0973;0,3342;56,35498756;37,50390875;13,60000038;
22:55:53:086;-0,0993;0,0973;0,3342;56,35498756;37,50390875;13,60000038;
22:55:53:087;-0,0993;0,0973;0,3342;56,35498756;37,50390875;13,60000038;
22:55:53:089;-0,0993;0,0973;0,3342;56,35498756;37,50390875;13,60000038;
22:55:53:090;-0,0621;0,0391;0,2906;56,35498756;37,50390875;13,60000038;
22:55:53:138;-0,0621;0,0391;0,2906;56,35498756;37,50390875;13,60000038;
22:55:53:140;-0,0120;0,0364;0,4349;56,35498756;37,50390875;13,60000038;
22:55:53:155;-0,0120;0,0364;0,4349;56,35498756;37,50390875;13,60000038;
22:55:53:158;-0,0120;0,0364;0,4349;56,35498756;37,50390875;13,60000038;
22:55:53:160;-0,0120;0,0364;0,4349;56,35498756;37,50390875;13,60000038;
22:55:53:162;-0,0120;0,0364;0,4349;56,35498756;37,50390875;13,60000038;
22:55:53:207;-0,0120;0,0364;0,4349;56,35498756;37,50390875;13,60000038;
22:55:53:210;-0,1128;-0,0295;0,2726;56,35498756;37,50390875;13,60000038;
22:55:53:268;-0,1128;-0,0295;0,2726;56,35498756;37,50390875;13,60000038;
22:55:53:271;-0,1128;-0,0295;0,2726;56,35498756;37,50390875;13,60000038;
22:55:53:272;-0,1128;-0,0295;0,2726;56,35498756;37,50390875;13,60000038;
22:55:53:273;-0,1128;-0,0295;0,2726;56,35498756;37,50390875;13,60000038;
22:55:53:275;-0,1128;-0,0295;0,2726;56,35498756;37,50390875;13,60000038;
22:55:53:277;-0,1128;-0,0295;0,2726;56,35498756;37,50390875;13,60000038;
22:55:53:278;-0,1128;-0,0295;0,2726;56,35498756;37,50390875;13,60000038;
22:55:53:280;-0,2541;0,0102;0,3085;56,35498756;37,50390875;13,60000038;
22:55:53:328;-0,2541;0,0102;0,3085;56,35498756;37,50390875;13,60000038;
22:55:53:332;-0,2082;-0,0221;0,3422;56,35498756;37,50390875;13,60000038;
22:55:53:345;-0,2082;-0,0221;0,3422;56,35498756;37,50390875;13,60000038;
22:55:53:347;-0,2082;-0,0221;0,3422;56,35498756;37,50390875;13,60000038;
22:55:53:349;-0,2082;-0,0221;0,3422;56,35498756;37,50390875;13,60000038;
22:55:53:391;-0,2082;-0,0221;0,3422;56,35498756;37,50390875;13,60000038;
22:55:53:394;-0,3667;-0,0432;0,2339;56,35498756;37,50390875;13,60000038;
22:55:53:449;-0,3667;-0,0432;0,2339;56,35498756;37,50390875;13,60000038;
22:55:53:452;-0,3667;-0,0432;0,2339;56,35498756;37,50390875;13,60000038;
22:55:53:455;-0,3667;-0,0432;0,2339;56,35498756;37,50390875;13,60000038;
22:55:53:457;-0,3667;-0,0432;0,2339;56,35498756;37,50390875;13,60000038;
22:55:53:459;-0,3667;-0,0432;0,2339;56,35498756;37,50390875;13,60000038;
22:55:53:460;-0,3667;-0,0432;0,2339;56,35498756;37,50390875;13,60000038;
22:55:53:462;-0,3667;-0,0432;0,2339;56,35498756;37,50390875;13,60000038;
22:55:53:463;-0,3443;-0,0731;0,4120;56,35498756;37,50390875;13,60000038;
22:55:53:509;-0,3443;-0,0731;0,4120;56,35498756;37,50390875;13,60000038;
22:55:53:511;-0,3513;-0,0726;0,4441;56,35498756;37,50390875;13,60000038;
22:55:53:526;-0,3513;-0,0726;0,4441;56,35498756;37,50390875;13,60000038;
22:55:53:528;-0,3513;-0,0726;0,4441;56,35498756;37,50390875;13,60000038;
22:55:53:529;-0,3513;-0,0726;0,4441;56,35498756;37,50390875;13,60000038;
22:55:53:579;-0,3513;-0,0726;0,4441;56,35498756;37,50390875;13,60000038;
22:55:53:581;-0,2675;-0,0818;0,2753;56,35498756;37,50390875;13,60000038;
22:55:53:604;-0,2675;-0,0818;0,2753;56,35498756;37,50390875;13,60000038;
22:55:53:606;-0,2675;-0,0818;0,2753;56,35498756;37,50390875;13,60000038;
22:55:53:607;-0,2675;-0,0818;0,2753;56,35498756;37,50390875;13,60000038;
22:55:53:608;-0,2675;-0,0818;0,2753;56,35498756;37,50390875;13,60000038;
22:55:53:652;-0,2675;-0,0818;0,2753;56,35498756;37,50390875;13,60000038;
22:55:53:653;-0,1868;-0,0671;0,2254;56,35494051;37,50412166;14,02999973;
22:55:53:710;-0,1868;-0,0671;0,2254;56,35494051;37,50412166;14,02999973;
22:55:53:713;-0,1868;-0,0671;0,2254;56,35494051;37,50412166;14,02999973;
22:55:53:714;-0,1868;-0,0671;0,2254;56,35494051;37,50412166;14,02999973;
22:55:53:716;-0,1868;-0,0671;0,2254;56,35494051;37,50412166;14,02999973;
22:55:53:717;-0,1868;-0,0671;0,2254;56,35494051;37,50412166;14,02999973;
22:55:53:719;-0,1868;-0,0671;0,2254;56,35494051;37,50412166;14,02999973;
22:55:53:720;-0,1868;-0,0671;0,2254;56,35494051;37,50412166;14,02999973;
22:55:53:721;-0,2732;-0,1757;0,6468;56,35494051;37,50412166;14,02999973;
22:55:53:770;-0,2732;-0,1757;0,6468;56,35494051;37,50412166;14,02999973;
22:55:53:773;-0,1858;-0,1088;0,1085;56,35494051;37,50412166;14,02999973;
22:55:53:789;-0,1858;-0,1088;0,1085;56,35494051;37,50412166;14,02999973;
22:55:53:792;-0,1858;-0,1088;0,1085;56,35494051;37,50412166;14,02999973;
22:55:53:793;-0,1858;-0,1088;0,1085;56,35494051;37,50412166;14,02999973;
22:55:53:840;-0,1858;-0,1088;0,1085;56,35494051;37,50412166;14,02999973;
22:55:53:843;-0,1677;0,0177;-0,4323;56,35494051;37,50412166;14,02999973;
22:55:53:901;-0,1677;0,0177;-0,4323;56,35494051;37,50412166;14,02999973;
22:55:53:903;-0,1677;0,0177;-0,4323;56,35494051;37,50412166;14,02999973;
22:55:53:905;-0,1677;0,0177;-0,4323;56,35494051;37,50412166;14,02999973;
22:55:53:907;-0,1677;0,0177;-0,4323;56,35494051;37,50412166;14,02999973;
22:55:53:909;-0,1677;0,0177;-0,4323;56,35494051;37,50412166;14,02999973;
22:55:53:910;-0,1677;0,0177;-0,4323;56,35494051;37,50412166;14,02999973;
22:55:53:912;-0,1677;0,0177;-0,4323;56,35494051;37,50412166;14,02999973;
22:55:53:913;-0,2655;0,0863;-0,7641;56,35494051;37,50412166;14,02999973;
22:55:53:916;-0,2655;0,0863;-0,7641;56,35494051;37,50412166;14,02999973;
22:55:53:918;-0,2801;0,1101;-0,7481;56,35494051;37,50412166;14,02999973;
22:55:53:972;-0,2801;0,1101;-0,7481;56,35494051;37,50412166;14,02999973;
22:55:53:977;-0,5857;-0,1137;-0,2291;56,35494051;37,50412166;14,02999973;
22:55:53:980;-0,5857;-0,1137;-0,2291;56,35494051;37,50412166;14,02999973;
22:55:53:982;-0,5857;-0,1137;-0,2291;56,35494051;37,50412166;14,02999973;
22:55:53:983;-0,5857;-0,1137;-0,2291;56,35494051;37,50412166;14,02999973;
22:55:53:985;-0,5857;-0,1137;-0,2291;56,35494051;37,50412166;14,02999973;
22:55:54:031;-0,5857;-0,1137;-0,2291;56,35494051;37,50412166;14,02999973;
22:55:54:034;-0,7248;-0,0911;-1,2446;56,35494051;37,50412166;14,02999973;
22:55:54:038;-0,7248;-0,0911;-1,2446;56,35494051;37,50412166;14,02999973;
22:55:54:040;-0,7248;-0,0911;-1,2446;56,35494051;37,50412166;14,02999973;
22:55:54:041;-0,7248;-0,0911;-1,2446;56,35494051;37,50412166;14,02999973;
22:55:54:092;-0,7248;-0,0911;-1,2446;56,35494051;37,50412166;14,02999973;
22:55:54:094;-0,1802;0,2506;0,2363;56,35494051;37,50412166;14,02999973;
22:55:54:122;-0,1802;0,2506;0,2363;56,35494051;37,50412166;14,02999973;
22:55:54:124;-0,1802;0,2506;0,2363;56,35494051;37,50412166;14,02999973;
22:55:54:126;-0,1802;0,2506;0,2363;56,35494051;37,50412166;14,02999973;
22:55:54:129;-0,1802;0,2506;0,2363;56,35494051;37,50412166;14,02999973;
22:55:54:172;-0,1802;0,2506;0,2363;56,35494051;37,50412166;14,02999973;
22:55:54:174;-0,3657;-0,2152;-1,5082;56,35494051;37,50412166;14,02999973;
22:55:54:193;-0,3657;-0,2152;-1,5082;56,35494051;37,50412166;14,02999973;
22:55:54:197;-0,3657;-0,2152;-1,5082;56,35494051;37,50412166;14,02999973;
22:55:54:199;-0,3657;-0,2152;-1,5082;56,35494051;37,50412166;14,02999973;
22:55:54:201;-0,3657;-0,2152;-1,5082;56,35494051;37,50412166;14,02999973;
22:55:54:254;-0,3657;-0,2152;-1,5082;56,35494051;37,50412166;14,02999973;
22:55:54:258;0,1684;0,1787;0,3458;56,35494051;37,50412166;14,02999973;
22:55:54:263;0,1684;0,1787;0,3458;56,35494051;37,50412166;14,02999973;
22:55:54:265;0,1684;0,1787;0,3458;56,35494051;37,50412166;14,02999973;
22:55:54:267;0,1684;0,1787;0,3458;56,35494051;37,50412166;14,02999973;
22:55:54:313;0,1684;0,1787;0,3458;56,35494051;37,50412166;14,02999973;
22:55:54:316;-0,1972;0,2298;-0,6097;56,35494051;37,50412166;14,02999973;
22:55:54:334;-0,1972;0,2298;-0,6097;56,35494051;37,50412166;14,02999973;
22:55:54:337;-0,2027;0,2432;-0,5971;56,35494051;37,50412166;14,02999973;
22:55:54:340;-0,2027;0,2432;-0,5971;56,35494051;37,50412166;14,02999973;
22:55:54:342;-0,2027;0,2432;-0,5971;56,35494051;37,50412166;14,02999973;
22:55:54:344;-0,2027;0,2432;-0,5971;56,35494051;37,50412166;14,02999973;
22:55:54:347;-0,2027;0,2432;-0,5971;56,35494051;37,50412166;14,02999973;
22:55:54:394;-0,2027;0,2432;-0,5971;56,35494051;37,50412166;14,02999973;
22:55:54:397;-0,0334;0,0264;-0,1573;56,35494051;37,50412166;14,02999973;
22:55:54:412;-0,0334;0,0264;-0,1573;56,35494051;37,50412166;14,02999973;
22:55:54:413;-0,0334;0,0264;-0,1573;56,35494051;37,50412166;14,02999973;
22:55:54:416;-0,0334;0,0264;-0,1573;56,35494051;37,50412166;14,02999973;
22:55:54:470;-0,0334;0,0264;-0,1573;56,35494051;37,50412166;14,02999973;
22:55:54:472;-0,0334;0,0264;-0,1573;56,35494051;37,50412166;14,02999973;
22:55:54:494;-0,0334;0,0264;-0,1573;56,35494051;37,50412166;14,02999973;
22:55:54:496;-0,0882;0,1185;0,0226;56,35494051;37,50412166;14,02999973;
22:55:54:551;-0,0882;0,1185;0,0226;56,35494051;37,50412166;14,02999973;
22:55:54:553;-0,1118;0,0525;-0,0991;56,35494051;37,50412166;14,02999973;
22:55:54:555;-0,1118;0,0525;-0,0991;56,35494051;37,50412166;14,02999973;
22:55:54:557;-0,1118;0,0525;-0,0991;56,35494051;37,50412166;14,02999973;
22:55:54:559;-0,1118;0,0525;-0,0991;56,35494051;37,50412166;14,02999973;
22:55:54:561;-0,1118;0,0525;-0,0991;56,35494051;37,50412166;14,02999973;
22:55:54:563;-0,1118;0,0525;-0,0991;56,35494051;37,50412166;14,02999973;
22:55:54:604;-0,1118;0,0525;-0,0991;56,35494051;37,50412166;14,02999973;
22:55:54:606;-0,0700;0,0038;-0,0648;56,35494051;37,50412166;14,02999973;
22:55:54:629;-0,0700;0,0038;-0,0648;56,35494051;37,50412166;14,02999973;
22:55:54:632;-0,0700;0,0038;-0,0648;56,35494051;37,50412166;14,02999973;
22:55:54:634;-0,0700;0,0038;-0,0648;56,35494051;37,50412166;14,02999973;
22:55:54:636;-0,0700;0,0038;-0,0648;56,35494051;37,50412166;14,02999973;
22:55:54:685;-0,0700;0,0038;-0,0648;56,35494051;37,50412166;14,02999973;
22:55:54:688;-0,0174;0,0358;-0,0526;56,35490966;37,50435339;14,43000031;
22:55:54:690;-0,0174;0,0358;-0,0526;56,35490966;37,50435339;14,43000031;
22:55:54:692;-0,0174;0,0358;-0,0526;56,35490966;37,50435339;14,43000031;
22:55:54:693;-0,0174;0,0358;-0,0526;56,35490966;37,50435339;14,43000031;
22:55:54:746;-0,0174;0,0358;-0,0526;56,35490966;37,50435339;14,43000031;
22:55:54:748;0,0826;0,0737;-0,0069;56,35490966;37,50435339;14,43000031;
22:55:54:766;0,0826;0,0737;-0,0069;56,35490966;37,50435339;14,43000031;
22:55:54:768;0,0826;0,0737;-0,0069;56,35490966;37,50435339;14,43000031;
22:55:54:771;0,0826;0,0737;-0,0069;56,35490966;37,50435339;14,43000031;
22:55:54:772;0,0826;0,0737;-0,0069;56,35490966;37,50435339;14,43000031;
22:55:54:773;0,0826;0,0737;-0,0069;56,35490966;37,50435339;14,43000031;
22:55:54:775;0,0687;0,0659;-0,0060;56,35490966;37,50435339;14,43000031;
22:55:54:826;0,0687;0,0659;-0,0060;56,35490966;37,50435339;14,43000031;
22:55:54:829;-0,0003;-0,0169;0,1454;56,35490966;37,50435339;14,43000031;
22:55:54:843;-0,0003;-0,0169;0,1454;56,35490966;37,50435339;14,43000031;
22:55:54:846;-0,0003;-0,0169;0,1454;56,35490966;37,50435339;14,43000031;
22:55:54:848;-0,0003;-0,0169;0,1454;56,35490966;37,50435339;14,43000031;
22:55:54:849;-0,0003;-0,0169;0,1454;56,35490966;37,50435339;14,43000031;
22:55:54:896;-0,0003;-0,0169;0,1454;56,35490966;37,50435339;14,43000031;
22:55:54:899;0,1003;0,0161;-0,0082;56,35490966;37,50435339;14,43000031;
22:55:54:901;0,1003;0,0161;-0,0082;56,35490966;37,50435339;14,43000031;
22:55:54:903;0,1003;0,0161;-0,0082;56,35490966;37,50435339;14,43000031;
22:55:54:905;0,1003;0,0161;-0,0082;56,35490966;37,50435339;14,43000031;
22:55:54:949;0,1003;0,0161;-0,0082;56,35490966;37,50435339;14,43000031;
22:55:54:952;0,0855;0,0121;-0,0075;56,35490966;37,50435339;14,43000031;
22:55:54:981;0,0855;0,0121;-0,0075;56,35490966;37,50435339;14,43000031;
22:55:54:984;0,0855;0,0121;-0,0075;56,35490966;37,50435339;14,43000031;
22:55:54:986;0,0855;0,0121;-0,0075;56,35490966;37,50435339;14,43000031;
22:55:54:987;0,0855;0,0121;-0,0075;56,35490966;37,50435339;14,43000031;
22:55:55:037;0,0855;0,0121;-0,0075;56,35490966;37,50435339;14,43000031;
22:55:55:040;0,2127;0,0343;0,1640;56,35490966;37,50435339;14,43000031;
22:55:55:060;0,2127;0,0343;0,1640;56,35490966;37,50435339;14,43000031;
22:55:55:063;0,2127;0,0343;0,1640;56,35490966;37,50435339;14,43000031;
22:55:55:065;0,2127;0,0343;0,1640;56,35490966;37,50435339;14,43000031;
22:55:55:068;0,2127;0,0343;0,1640;56,35490966;37,50435339;14,43000031;
22:55:55:069;0,2127;0,0343;0,1640;56,35490966;37,50435339;14,43000031;
22:55:55:071;0,2112;0,0252;0,1602;56,35490966;37,50435339;14,43000031;
22:55:55:118;0,2112;0,0252;0,1602;56,35490966;37,50435339;14,43000031;
22:55:55:120;0,1262;-0,0354;-0,1162;56,35490966;37,50435339;14,43000031;
22:55:55:123;0,1262;-0,0354;-0,1162;56,35490966;37,50435339;14,43000031;
22:55:55:124;0,1262;-0,0354;-0,1162;56,35490966;37,50435339;14,43000031;
22:55:55:126;0,1262;-0,0354;-0,1162;56,35490966;37,50435339;14,43000031;
22:55:55:178;0,1262;-0,0354;-0,1162;56,35490966;37,50435339;14,43000031;
22:55:55:180;0,1281;0,0442;-0,1248;56,35490966;37,50435339;14,43000031;
22:55:55:197;0,1281;0,0442;-0,1248;56,35490966;37,50435339;14,43000031;
22:55:55:199;0,1281;0,0442;-0,1248;56,35490966;37,50435339;14,43000031;
22:55:55:200;0,1281;0,0442;-0,1248;56,35490966;37,50435339;14,43000031;
22:55:55:201;0,1281;0,0442;-0,1248;56,35490966;37,50435339;14,43000031;
22:55:55:269;0,1281;0,0442;-0,1248;56,35490966;37,50435339;14,43000031;
22:55:55:272;0,1387;0,0300;-0,0862;56,35490966;37,50435339;14,43000031;
22:55:55:275;0,1387;0,0300;-0,0862;56,35490966;37,50435339;14,43000031;
22:55:55:277;0,1387;0,0300;-0,0862;56,35490966;37,50435339;14,43000031;
22:55:55:278;0,1387;0,0300;-0,0862;56,35490966;37,50435339;14,43000031;
22:55:55:329;0,1387;0,0300;-0,0862;56,35490966;37,50435339;14,43000031;
22:55:55:332;0,1048;0,0267;-0,1431;56,35490966;37,50435339;14,43000031;
22:55:55:334;0,1048;0,0267;-0,1431;56,35490966;37,50435339;14,43000031;
22:55:55:336;0,1048;0,0267;-0,1431;56,35490966;37,50435339;14,43000031;
22:55:55:338;0,1048;0,0267;-0,1431;56,35490966;37,50435339;14,43000031;
22:55:55:388;0,1048;0,0267;-0,1431;56,35490966;37,50435339;14,43000031;
22:55:55:390;0,1097;0,0261;-0,1143;56,35490966;37,50435339;14,43000031;
22:55:55:411;0,1097;0,0261;-0,1143;56,35490966;37,50435339;14,43000031;
22:55:55:416;0,1097;0,0261;-0,1143;56,35490966;37,50435339;14,43000031;
22:55:55:418;0,1097;0,0261;-0,1143;56,35490966;37,50435339;14,43000031;
22:55:55:420;0,1097;0,0261;-0,1143;56,35490966;37,50435339;14,43000031;
22:55:55:467;0,1097;0,0261;-0,1143;56,35490966;37,50435339;14,43000031;
22:55:55:469;-0,0009;0,0044;0,0630;56,35490966;37,50435339;14,43000031;
22:55:55:489;-0,0009;0,0044;0,0630;56,35490966;37,50435339;14,43000031;
22:55:55:491;0,0000;0,0030;0,0559;56,35490966;37,50435339;14,43000031;
22:55:55:493;0,0000;0,0030;0,0559;56,35490966;37,50435339;14,43000031;
22:55:55:495;0,0000;0,0030;0,0559;56,35490966;37,50435339;14,43000031;
22:55:55:497;0,0000;0,0030;0,0559;56,35490966;37,50435339;14,43000031;
22:55:55:499;0,0000;0,0030;0,0559;56,35490966;37,50435339;14,43000031;
22:55:55:550;0,0778;-0,0150;0,0239;56,35490966;37,50435339;14,43000031;
22:55:55:553;0,0778;-0,0150;0,0239;56,35490966;37,50435339;14,43000031;
22:55:55:554;0,0778;-0,0150;0,0239;56,35490966;37,50435339;14,43000031;
22:55:55:556;0,0778;-0,0150;0,0239;56,35490966;37,50435339;14,43000031;
22:55:55:557;0,0778;-0,0150;0,0239;56,35490966;37,50435339;14,43000031;
22:55:55:609;0,0778;-0,0150;0,0239;56,35490966;37,50435339;14,43000031;
22:55:55:612;0,0404;-0,0317;0,0960;56,35490966;37,50435339;14,43000031;
22:55:55:628;0,0404;-0,0317;0,0960;56,35490966;37,50435339;14,43000031;
22:55:55:631;0,0404;-0,0317;0,0960;56,35490966;37,50435339;14,43000031;
22:55:55:636;0,0404;-0,0317;0,0960;56,35490966;37,50435339;14,43000031;
22:55:55:637;0,0404;-0,0317;0,0960;56,35490966;37,50435339;14,43000031;
22:55:55:689;0,0404;-0,0317;0,0960;56,35490966;37,50435339;14,43000031;
22:55:55:690;-0,0094;-0,0461;0,1102;56,35485938;37,50459053;14,94999981;
22:55:55:705;-0,0094;-0,0461;0,1102;56,35485938;37,50459053;14,94999981;
22:55:55:707;-0,0094;-0,0461;0,1102;56,35485938;37,50459053;14,94999981;
22:55:55:708;-0,0094;-0,0461;0,1102;56,35485938;37,50459053;14,94999981;
22:55:55:710;-0,0094;-0,0461;0,1102;56,35485938;37,50459053;14,94999981;
22:55:55:728;-0,0094;-0,0461;0,1102;56,35485938;37,50459053;14,94999981;
22:55:55:731;-0,0124;-0,0421;0,0979;56,35485938;37,50459053;14,94999981;
22:55:55:766;-0,0124;-0,0421;0,0979;56,35485938;37,50459053;14,94999981;
22:55:55:789;-0,0124;-0,0421;0,0979;56,35485938;37,50459053;14,94999981;
22:55:55:791;-0,1134;-0,0461;0,1267;56,35485938;37,50459053;14,94999981;
22:55:55:837;-0,1134;-0,0461;0,1267;56,35485938;37,50459053;14,94999981;
22:55:55:839;-0,1134;-0,0461;0,1267;56,35485938;37,50459053;14,94999981;
22:55:55:840;-0,1134;-0,0461;0,1267;56,35485938;37,50459053;14,94999981;
22:55:55:841;-0,1134;-0,0461;0,1267;56,35485938;37,50459053;14,94999981;
22:55:55:842;-0,1134;-0,0461;0,1267;56,35485938;37,50459053;14,94999981;
22:55:55:890;-0,1134;-0,0461;0,1267;56,35485938;37,50459053;14,94999981;
22:55:55:892;-0,1038;-0,0499;0,0006;56,35485938;37,50459053;14,94999981;
22:55:55:916;-0,1038;-0,0499;0,0006;56,35485938;37,50459053;14,94999981;
22:55:55:919;-0,1051;-0,0410;0,0017;56,35485938;37,50459053;14,94999981;
22:55:55:921;-0,1051;-0,0410;0,0017;56,35485938;37,50459053;14,94999981;
22:55:55:922;-0,1051;-0,0410;0,0017;56,35485938;37,50459053;14,94999981;
22:55:55:923;-0,1051;-0,0410;0,0017;56,35485938;37,50459053;14,94999981;
22:55:55:925;-0,1051;-0,0410;0,0017;56,35485938;37,50459053;14,94999981;
22:55:55:971;-0,1051;-0,0410;0,0017;56,35485938;37,50459053;14,94999981;
22:55:55:974;-0,0736;0,0453;-0,2374;56,35485938;37,50459053;14,94999981;
22:55:55:984;-0,0736;0,0453;-0,2374;56,35485938;37,50459053;14,94999981;
22:55:55:986;-0,0736;0,0453;-0,2374;56,35485938;37,50459053;14,94999981;
22:55:55:988;-0,0736;0,0453;-0,2374;56,35485938;37,50459053;14,94999981;
22:55:56:042;-0,0736;0,0453;-0,2374;56,35485938;37,50459053;14,94999981;
22:55:56:045;-0,0045;0,0532;-0,2681;56,35485938;37,50459053;14,94999981;
22:55:56:060;-0,0045;0,0532;-0,2681;56,35485938;37,50459053;14,94999981;
22:55:56:063;-0,0045;0,0532;-0,2681;56,35485938;37,50459053;14,94999981;
22:55:56:065;-0,0045;0,0532;-0,2681;56,35485938;37,50459053;14,94999981;
22:55:56:067;-0,0045;0,0532;-0,2681;56,35485938;37,50459053;14,94999981;
22:55:56:069;-0,0045;0,0532;-0,2681;56,35485938;37,50459053;14,94999981;
22:55:56:121;-0,0045;0,0532;-0,2681;56,35485938;37,50459053;14,94999981;
22:55:56:124;-0,0748;0,0308;-0,1452;56,35485938;37,50459053;14,94999981;
22:55:56:140;-0,0748;0,0308;-0,1452;56,35485938;37,50459053;14,94999981;
22:55:56:142;-0,0748;0,0308;-0,1452;56,35485938;37,50459053;14,94999981;
22:55:56:144;-0,0748;0,0308;-0,1452;56,35485938;37,50459053;14,94999981;
22:55:56:193;-0,0748;0,0308;-0,1452;56,35485938;37,50459053;14,94999981;
22:55:56:195;-0,0082;0,0866;-0,1954;56,35485938;37,50459053;14,94999981;
22:55:56:199;-0,0082;0,0866;-0,1954;56,35485938;37,50459053;14,94999981;
22:55:56:200;-0,0082;0,0866;-0,1954;56,35485938;37,50459053;14,94999981;
22:55:56:201;-0,0082;0,0866;-0,1954;56,35485938;37,50459053;14,94999981;
22:55:56:244;-0,0082;0,0866;-0,1954;56,35485938;37,50459053;14,94999981;
22:55:56:247;-0,0524;0,0128;-0,0501;56,35485938;37,50459053;14,94999981;
22:55:56:276;-0,0524;0,0128;-0,0501;56,35485938;37,50459053;14,94999981;
22:55:56:278;-0,0433;0,0115;-0,0446;56,35485938;37,50459053;14,94999981;
22:55:56:281;-0,0433;0,0115;-0,0446;56,35485938;37,50459053;14,94999981;
22:55:56:284;-0,0433;0,0115;-0,0446;56,35485938;37,50459053;14,94999981;
22:55:56:286;-0,0433;0,0115;-0,0446;56,35485938;37,50459053;14,94999981;
22:55:56:287;-0,0433;0,0115;-0,0446;56,35485938;37,50459053;14,94999981;
22:55:56:333;-0,0433;0,0115;-0,0446;56,35485938;37,50459053;14,94999981;
22:55:56:335;-0,0343;0,0010;0,0608;56,35485938;37,50459053;14,94999981;
22:55:56:357;-0,0343;0,0010;0,0608;56,35485938;37,50459053;14,94999981;
22:55:56:359;-0,0343;0,0010;0,0608;56,35485938;37,50459053;14,94999981;
22:55:56:360;-0,0343;0,0010;0,0608;56,35485938;37,50459053;14,94999981;
22:55:56:362;-0,0343;0,0010;0,0608;56,35485938;37,50459053;14,94999981;
22:55:56:414;-0,0343;0,0010;0,0608;56,35485938;37,50459053;14,94999981;
22:55:56:417;-0,0788;-0,0327;0,0957;56,35485938;37,50459053;14,94999981;
22:55:56:419;-0,0788;-0,0327;0,0957;56,35485938;37,50459053;14,94999981;
22:55:56:421;-0,0788;-0,0327;0,0957;56,35485938;37,50459053;14,94999981;
22:55:56:423;-0,0788;-0,0327;0,0957;56,35485938;37,50459053;14,94999981;
22:55:56:477;-0,0788;-0,0327;0,0957;56,35485938;37,50459053;14,94999981;
22:55:56:480;0,0558;0,0188;-0,0393;56,35485938;37,50459053;14,94999981;
22:55:56:493;0,0558;0,0188;-0,0393;56,35485938;37,50459053;14,94999981;
22:55:56:496;0,0558;0,0188;-0,0393;56,35485938;37,50459053;14,94999981;
22:55:56:497;0,0558;0,0188;-0,0393;56,35485938;37,50459053;14,94999981;
22:55:56:499;0,0558;0,0188;-0,0393;56,35485938;37,50459053;14,94999981;
22:55:56:508;0,0558;0,0188;-0,0393;56,35485938;37,50459053;14,94999981;
22:55:56:510;0,0544;0,0141;-0,0354;56,35485938;37,50459053;14,94999981;
22:55:56:566;0,0544;0,0141;-0,0354;56,35485938;37,50459053;14,94999981;
22:55:56:569;0,0544;0,0141;-0,0354;56,35485938;37,50459053;14,94999981;
22:55:56:570;0,0544;0,0141;-0,0354;56,35485938;37,50459053;14,94999981;
22:55:56:571;0,0544;0,0141;-0,0354;56,35485938;37,50459053;14,94999981;
22:55:56:572;0,0544;0,0141;-0,0354;56,35485938;37,50459053;14,94999981;
22:55:56:573;-0,0293;-0,0457;0,0922;56,35485938;37,50459053;14,94999981;
22:55:56:625;-0,0293;-0,0457;0,0922;56,35485938;37,50459053;14,94999981;
22:55:56:627;-0,0317;0,0451;-0,1588;56,35485938;37,50459053;14,94999981;
22:55:56:632;-0,0317;0,0451;-0,1588;56,35485938;37,50459053;14,94999981;
22:55:56:634;-0,0317;0,0451;-0,1588;56,35485938;37,50459053;14,94999981;
22:55:56:636;-0,0317;0,0451;-0,1588;56,35485938;37,50459053;14,94999981;
22:55:56:684;-0,0317;0,0451;-0,1588;56,35485938;37,50459053;14,94999981;
22:55:56:687;0,0234;-0,0055;-0,1326;56,35481932;37,50481786;15,14000034;
22:55:56:708;0,0234;-0,0055;-0,1326;56,35481932;37,50481786;15,14000034;
22:55:56:709;0,0234;-0,0055;-0,1326;56,35481932;37,50481786;15,14000034;
22:55:56:711;0,0234;-0,0055;-0,1326;56,35481932;37,50481786;15,14000034;
22:55:56:712;0,0234;-0,0055;-0,1326;56,35481932;37,50481786;15,14000034;
22:55:56:763;0,0234;-0,0055;-0,1326;56,35481932;37,50481786;15,14000034;
22:55:56:765;-0,0450;-0,0242;0,1101;56,35481932;37,50481786;15,14000034;
22:55:56:788;-0,0450;-0,0242;0,1101;56,35481932;37,50481786;15,14000034;
22:55:56:789;-0,0450;-0,0242;0,1101;56,35481932;37,50481786;15,14000034;
22:55:56:790;-0,0450;-0,0242;0,1101;56,35481932;37,50481786;15,14000034;
22:55:56:792;-0,0450;-0,0242;0,1101;56,35481932;37,50481786;15,14000034;
22:55:56:846;-0,0450;-0,0242;0,1101;56,35481932;37,50481786;15,14000034;
22:55:56:849;-0,0450;-0,0242;0,1101;56,35481932;37,50481786;15,14000034;
22:55:56:850;-0,0450;-0,0242;0,1101;56,35481932;37,50481786;15,14000034;
22:55:56:852;-0,0450;-0,0242;0,1101;56,35481932;37,50481786;15,14000034;
22:55:56:853;0,0222;-0,0495;0,0472;56,35481932;37,50481786;15,14000034;
22:55:56:907;0,0222;-0,0495;0,0472;56,35481932;37,50481786;15,14000034;
22:55:56:909;0,0531;-0,0018;0,0511;56,35481932;37,50481786;15,14000034;
22:55:56:925;0,0531;-0,0018;0,0511;56,35481932;37,50481786;15,14000034;
22:55:56:928;0,0350;-0,0081;0,0449;56,35481932;37,50481786;15,14000034;
22:55:56:931;0,0350;-0,0081;0,0449;56,35481932;37,50481786;15,14000034;
22:55:56:933;0,0350;-0,0081;0,0449;56,35481932;37,50481786;15,14000034;
22:55:56:935;0,0350;-0,0081;0,0449;56,35481932;37,50481786;15,14000034;
22:55:56:937;0,0350;-0,0081;0,0449;56,35481932;37,50481786;15,14000034;
22:55:56:987;0,0350;-0,0081;0,0449;56,35481932;37,50481786;15,14000034;
22:55:56:990;0,0760;-0,0415;-0,1122;56,35481932;37,50481786;15,14000034;
22:55:57:004;0,0760;-0,0415;-0,1122;56,35481932;37,50481786;15,14000034;
22:55:57:008;0,0760;-0,0415;-0,1122;56,35481932;37,50481786;15,14000034;
22:55:57:010;0,0760;-0,0415;-0,1122;56,35481932;37,50481786;15,14000034;
22:55:57:064;0,0760;-0,0415;-0,1122;56,35481932;37,50481786;15,14000034;
22:55:57:067;0,0760;-0,0415;-0,1122;56,35481932;37,50481786;15,14000034;
22:55:57:090;0,2537;-0,0936;0,1157;56,35481932;37,50481786;15,14000034;
22:55:57:093;0,2537;-0,0936;0,1157;56,35481932;37,50481786;15,14000034;
22:55:57:143;0,2537;-0,0936;0,1157;56,35481932;37,50481786;15,14000034;
22:55:57:146;0,1718;-0,1725;0,0240;56,35481932;37,50481786;15,14000034;
22:55:57:148;0,1718;-0,1725;0,0240;56,35481932;37,50481786;15,14000034;
22:55:57:150;0,1718;-0,1725;0,0240;56,35481932;37,50481786;15,14000034;
22:55:57:151;0,1718;-0,1725;0,0240;56,35481932;37,50481786;15,14000034;
22:55:57:152;0,1718;-0,1725;0,0240;56,35481932;37,50481786;15,14000034;
22:55:57:154;0,1718;-0,1725;0,0240;56,35481932;37,50481786;15,14000034;
22:55:57:198;0,1718;-0,1725;0,0240;56,35481932;37,50481786;15,14000034;
22:55:57:201;0,2451;-0,1477;-0,0575;56,35481932;37,50481786;15,14000034;
22:55:57:221;0,2451;-0,1477;-0,0575;56,35481932;37,50481786;15,14000034;
22:55:57:223;0,2451;-0,1477;-0,0575;56,35481932;37,50481786;15,14000034;
22:55:57:225;0,2451;-0,1477;-0,0575;56,35481932;37,50481786;15,14000034;
22:55:57:227;0,2451;-0,1477;-0,0575;56,35481932;37,50481786;15,14000034;
22:55:57:279;0,2451;-0,1477;-0,0575;56,35481932;37,50481786;15,14000034;
22:55:57:282;0,2451;-0,1477;-0,0575;56,35481932;37,50481786;15,14000034;
22:55:57:283;0,2451;-0,1477;-0,0575;56,35481932;37,50481786;15,14000034;
22:55:57:285;0,2451;-0,1477;-0,0575;56,35481932;37,50481786;15,14000034;
22:55:57:286;0,1823;-0,1948;0,0287;56,35481932;37,50481786;15,14000034;
22:55:57:339;0,1823;-0,1948;0,0287;56,35481932;37,50481786;15,14000034;
22:55:57:342;0,0666;-0,1384;-0,1363;56,35481932;37,50481786;15,14000034;
22:55:57:359;0,0666;-0,1384;-0,1363;56,35481932;37,50481786;15,14000034;
22:55:57:361;0,0666;-0,1384;-0,1363;56,35481932;37,50481786;15,14000034;
22:55:57:364;0,0666;-0,1384;-0,1363;56,35481932;37,50481786;15,14000034;
22:55:57:367;0,0666;-0,1384;-0,1363;56,35481932;37,50481786;15,14000034;
22:55:57:370;0,0666;-0,1384;-0,1363;56,35481932;37,50481786;15,14000034;
22:55:57:371;0,0650;-0,1201;-0,1210;56,35481932;37,50481786;15,14000034;
22:55:57:419;0,0650;-0,1201;-0,1210;56,35481932;37,50481786;15,14000034;
22:55:57:422;0,2346;-0,0801;-0,3021;56,35481932;37,50481786;15,14000034;
22:55:57:442;0,2346;-0,0801;-0,3021;56,35481932;37,50481786;15,14000034;
22:55:57:445;0,2346;-0,0801;-0,3021;56,35481932;37,50481786;15,14000034;
22:55:57:447;0,2346;-0,0801;-0,3021;56,35481932;37,50481786;15,14000034;
22:55:57:451;0,2346;-0,0801;-0,3021;56,35481932;37,50481786;15,14000034;
22:55:57:498;0,2346;-0,0801;-0,3021;56,35481932;37,50481786;15,14000034;
22:55:57:501;0,2346;-0,0801;-0,3021;56,35481932;37,50481786;15,14000034;
22:55:57:502;0,2346;-0,0801;-0,3021;56,35481932;37,50481786;15,14000034;
22:55:57:504;0,2346;-0,0801;-0,3021;56,35481932;37,50481786;15,14000034;
22:55:57:505;0,1191;-0,1516;-0,1006;56,35481932;37,50481786;15,14000034;
22:55:57:541;0,1191;-0,1516;-0,1006;56,35481932;37,50481786;15,14000034;
22:55:57:544;0,1282;-0,1415;-0,0983;56,35481932;37,50481786;15,14000034;
22:55:57:572;0,1282;-0,1415;-0,0983;56,35481932;37,50481786;15,14000034;
22:55:57:574;0,1282;-0,1415;-0,0983;56,35481932;37,50481786;15,14000034;
22:55:57:575;0,1282;-0,1415;-0,0983;56,35481932;37,50481786;15,14000034;
22:55:57:576;0,1282;-0,1415;-0,0983;56,35481932;37,50481786;15,14000034;
22:55:57:634;0,1282;-0,1415;-0,0983;56,35481932;37,50481786;15,14000034;
22:55:57:637;-0,0059;-0,1622;0,0494;56,35481932;37,50481786;15,14000034;
22:55:57:655;-0,0059;-0,1622;0,0494;56,35481932;37,50481786;15,14000034;
22:55:57:657;-0,0059;-0,1622;0,0494;56,35481932;37,50481786;15,14000034;
22:55:57:659;-0,0059;-0,1622;0,0494;56,35481932;37,50481786;15,14000034;
22:55:57:661;-0,0059;-0,1622;0,0494;56,35481932;37,50481786;15,14000034;
22:55:57:662;-0,0059;-0,1622;0,0494;56,35481932;37,50481786;15,14000034;
22:55:57:665;-0,0009;-0,1648;0,0476;56,35481932;37,50481786;15,14000034;
22:55:57:712;-0,0009;-0,1648;0,0476;56,35481932;37,50481786;15,14000034;
22:55:57:713;-0,0528;-0,1147;-0,1028;56,35475972;37,50506542;15,56000042;
22:55:57:716;-0,0528;-0,1147;-0,1028;56,35475972;37,50506542;15,56000042;
22:55:57:718;-0,0528;-0,1147;-0,1028;56,35475972;37,50506542;15,56000042;
22:55:57:719;-0,0528;-0,1147;-0,1028;56,35475972;37,50506542;15,56000042;
22:55:57:770;-0,0528;-0,1147;-0,1028;56,35475972;37,50506542;15,56000042;
22:55:57:773;-0,0812;-0,1353;-0,0637;56,35475972;37,50506542;15,56000042;
22:55:57:790;-0,0812;-0,1353;-0,0637;56,35475972;37,50506542;15,56000042;
22:55:57:792;-0,0812;-0,1353;-0,0637;56,35475972;37,50506542;15,56000042;
22:55:57:794;-0,0812;-0,1353;-0,0637;56,35475972;37,50506542;15,56000042;
22:55:57:797;-0,0812;-0,1353;-0,0637;56,35475972;37,50506542;15,56000042;
22:55:57:859;-0,0812;-0,1353;-0,0637;56,35475972;37,50506542;15,56000042;
22:55:57:863;-0,1238;-0,1208;0,0719;56,35475972;37,50506542;15,56000042;
22:55:57:865;-0,1238;-0,1208;0,0719;56,35475972;37,50506542;15,56000042;
22:55:57:867;-0,1238;-0,1208;0,0719;56,35475972;37,50506542;15,56000042;
22:55:57:868;-0,1238;-0,1208;0,0719;56,35475972;37,50506542;15,56000042;
22:55:57:922;-0,1238;-0,1208;0,0719;56,35475972;37,50506542;15,56000042;
22:55:57:925;-0,1251;-0,1193;0,1492;56,35475972;37,50506542;15,56000042;
22:55:57:929;-0,1251;-0,1193;0,1492;56,35475972;37,50506542;15,56000042;
22:55:57:931;-0,1251;-0,1193;0,1492;56,35475972;37,50506542;15,56000042;
22:55:57:933;-0,1251;-0,1193;0,1492;56,35475972;37,50506542;15,56000042;
22:55:57:982;-0,1251;-0,1193;0,1492;56,35475972;37,50506542;15,56000042;
22:55:57:986;-0,1881;-0,0913;-0,0027;56,35475972;37,50506542;15,56000042;
22:55:58:008;-0,1881;-0,0913;-0,0027;56,35475972;37,50506542;15,56000042;
22:55:58:011;-0,1881;-0,0913;-0,0027;56,35475972;37,50506542;15,56000042;
22:55:58:013;-0,1881;-0,0913;-0,0027;56,35475972;37,50506542;15,56000042;
22:55:58:015;-0,1881;-0,0913;-0,0027;56,35475972;37,50506542;15,56000042;
22:55:58:061;-0,1881;-0,0913;-0,0027;56,35475972;37,50506542;15,56000042;
22:55:58:064;-0,2695;-0,1114;0,2054;56,35475972;37,50506542;15,56000042;
22:55:58:084;-0,2695;-0,1114;0,2054;56,35475972;37,50506542;15,56000042;
22:55:58:087;-0,2695;-0,1114;0,2054;56,35475972;37,50506542;15,56000042;
22:55:58:089;-0,2695;-0,1114;0,2054;56,35475972;37,50506542;15,56000042;
22:55:58:091;-0,2695;-0,1114;0,2054;56,35475972;37,50506542;15,56000042;
22:55:58:092;-0,2695;-0,1114;0,2054;56,35475972;37,50506542;15,56000042;
22:55:58:094;-0,2440;-0,1041;0,1819;56,35475972;37,50506542;15,56000042;
22:55:58:143;-0,1665;-0,0466;-0,1099;56,35475972;37,50506542;15,56000042;
22:55:58:148;-0,1665;-0,0466;-0,1099;56,35475972;37,50506542;15,56000042;
22:55:58:150;-0,1665;-0,0466;-0,1099;56,35475972;37,50506542;15,56000042;
22:55:58:152;-0,1665;-0,0466;-0,1099;56,35475972;37,50506542;15,56000042;
22:55:58:153;-0,1665;-0,0466;-0,1099;56,35475972;37,50506542;15,56000042;
22:55:58:204;-0,1665;-0,0466;-0,1099;56,35475972;37,50506542;15,56000042;
22:55:58:206;-0,1742;-0,0785;0,0084;56,35475972;37,50506542;15,56000042;
22:55:58:224;-0,1742;-0,0785;0,0084;56,35475972;37,50506542;15,56000042;
22:55:58:227;-0,1742;-0,0785;0,0084;56,35475972;37,50506542;15,56000042;
22:55:58:229;-0,1742;-0,0785;0,0084;56,35475972;37,50506542;15,56000042;
22:55:58:232;-0,1742;-0,0785;0,0084;56,35475972;37,50506542;15,56000042;
22:55:58:284;-0,1742;-0,0785;0,0084;56,35475972;37,50506542;15,56000042;
22:55:58:286;-0,2567;-0,0461;-0,1224;56,35475972;37,50506542;15,56000042;
22:55:58:308;-0,2567;-0,0461;-0,1224;56,35475972;37,50506542;15,56000042;
22:55:58:310;-0,2567;-0,0461;-0,1224;56,35475972;37,50506542;15,56000042;
22:55:58:312;-0,2567;-0,0461;-0,1224;56,35475972;37,50506542;15,56000042;
22:55:58:315;-0,2567;-0,0461;-0,1224;56,35475972;37,50506542;15,56000042;
22:55:58:323;-0,2490;-0,0402;-0,1196;56,35475972;37,50506542;15,56000042;
22:55:58:325;-0,2490;-0,0402;-0,1196;56,35475972;37,50506542;15,56000042;
22:55:58:360;-0,2490;-0,0402;-0,1196;56,35475972;37,50506542;15,56000042;
22:55:58:384;-0,2490;-0,0402;-0,1196;56,35475972;37,50506542;15,56000042;
22:55:58:386;-0,1561;-0,0109;0,0895;56,35475972;37,50506542;15,56000042;
22:55:58:439;-0,1561;-0,0109;0,0895;56,35475972;37,50506542;15,56000042;
22:55:58:441;-0,1561;-0,0109;0,0895;56,35475972;37,50506542;15,56000042;
22:55:58:443;-0,1561;-0,0109;0,0895;56,35475972;37,50506542;15,56000042;
22:55:58:445;-0,1561;-0,0109;0,0895;56,35475972;37,50506542;15,56000042;
22:55:58:447;-0,1561;-0,0109;0,0895;56,35475972;37,50506542;15,56000042;
22:55:58:448;-0,1561;-0,0109;0,0895;56,35475972;37,50506542;15,56000042;
22:55:58:450;-0,1561;-0,0109;0,0895;56,35475972;37,50506542;15,56000042;
22:55:58:451;-0,2006;-0,0392;0,0536;56,35475972;37,50506542;15,56000042;
22:55:58:494;-0,2006;-0,0392;0,0536;56,35475972;37,50506542;15,56000042;
22:55:58:497;-0,1727;-0,0717;0,2320;56,35475972;37,50506542;15,56000042;
22:55:58:518;-0,1727;-0,0717;0,2320;56,35475972;37,50506542;15,56000042;
22:55:58:521;-0,1727;-0,0717;0,2320;56,35475972;37,50506542;15,56000042;
22:55:58:522;-0,1727;-0,0717;0,2320;56,35475972;37,50506542;15,56000042;
22:55:58:524;-0,1727;-0,0717;0,2320;56,35475972;37,50506542;15,56000042;
22:55:58:577;-0,1727;-0,0717;0,2320;56,35475972;37,50506542;15,56000042;
22:55:58:579;-0,2284;0,0106;-0,2195;56,35475972;37,50506542;15,56000042;
22:55:58:582;-0,2284;0,0106;-0,2195;56,35475972;37,50506542;15,56000042;
22:55:58:583;-0,2284;0,0106;-0,2195;56,35475972;37,50506542;15,56000042;
22:55:58:584;-0,2284;0,0106;-0,2195;56,35475972;37,50506542;15,56000042;
22:55:58:637;-0,2284;0,0106;-0,2195;56,35475972;37,50506542;15,56000042;
22:55:58:639;0,0084;0,1529;-0,7990;56,35475972;37,50506542;15,56000042;
22:55:58:655;0,0084;0,1529;-0,7990;56,35475972;37,50506542;15,56000042;
22:55:58:657;0,0084;0,1529;-0,7990;56,35475972;37,50506542;15,56000042;
22:55:58:659;0,0084;0,1529;-0,7990;56,35475972;37,50506542;15,56000042;
22:55:58:661;0,0084;0,1529;-0,7990;56,35475972;37,50506542;15,56000042;
22:55:58:715;0,0084;0,1529;-0,7990;56,35475972;37,50506542;15,56000042;
22:55:58:717;-0,3423;0,2892;-1,1304;56,35471583;37,50530314;15,60999966;
22:55:58:738;-0,3423;0,2892;-1,1304;56,35471583;37,50530314;15,60999966;
22:55:58:740;-0,3423;0,2892;-1,1304;56,35471583;37,50530314;15,60999966;
22:55:58:741;-0,3423;0,2892;-1,1304;56,35471583;37,50530314;15,60999966;
22:55:58:786;-0,3423;0,2892;-1,1304;56,35471583;37,50530314;15,60999966;
22:55:58:790;0,1870;-0,0939;-0,2732;56,35471583;37,50530314;15,60999966;
22:55:58:792;0,1870;-0,0939;-0,2732;56,35471583;37,50530314;15,60999966;
22:55:58:794;0,1870;-0,0939;-0,2732;56,35471583;37,50530314;15,60999966;
22:55:58:796;0,1870;-0,0939;-0,2732;56,35471583;37,50530314;15,60999966;
22:55:58:839;0,1870;-0,0939;-0,2732;56,35471583;37,50530314;15,60999966;
22:55:58:843;0,2387;0,0439;-0,0024;56,35471583;37,50530314;15,60999966;
22:55:58:867;0,2387;0,0439;-0,0024;56,35471583;37,50530314;15,60999966;
22:55:58:870;0,2510;0,0382;-0,0033;56,35471583;37,50530314;15,60999966;
22:55:58:872;0,2510;0,0382;-0,0033;56,35471583;37,50530314;15,60999966;
22:55:58:873;0,2510;0,0382;-0,0033;56,35471583;37,50530314;15,60999966;
22:55:58:874;0,2510;0,0382;-0,0033;56,35471583;37,50530314;15,60999966;
22:55:58:876;0,2510;0,0382;-0,0033;56,35471583;37,50530314;15,60999966;
22:55:58:926;0,2510;0,0382;-0,0033;56,35471583;37,50530314;15,60999966;
22:55:58:929;0,0605;0,1714;-0,2792;56,35471583;37,50530314;15,60999966;
22:55:58:944;0,0605;0,1714;-0,2792;56,35471583;37,50530314;15,60999966;
22:55:58:949;0,0605;0,1714;-0,2792;56,35471583;37,50530314;15,60999966;
22:55:58:951;0,0605;0,1714;-0,2792;56,35471583;37,50530314;15,60999966;
22:55:58:953;0,0605;0,1714;-0,2792;56,35471583;37,50530314;15,60999966;
22:55:59:007;0,0605;0,1714;-0,2792;56,35471583;37,50530314;15,60999966;
22:55:59:009;0,1597;-0,0786;0,5623;56,35471583;37,50530314;15,60999966;
22:55:59:011;0,1597;-0,0786;0,5623;56,35471583;37,50530314;15,60999966;
22:55:59:013;0,1597;-0,0786;0,5623;56,35471583;37,50530314;15,60999966;
22:55:59:014;0,1597;-0,0786;0,5623;56,35471583;37,50530314;15,60999966;
22:55:59:066;0,1597;-0,0786;0,5623;56,35471583;37,50530314;15,60999966;
22:55:59:068;0,1024;-0,0919;0,5912;56,35471583;37,50530314;15,60999966;
22:55:59:086;0,1024;-0,0919;0,5912;56,35471583;37,50530314;15,60999966;
22:55:59:089;0,1024;-0,0919;0,5912;56,35471583;37,50530314;15,60999966;
22:55:59:090;0,1024;-0,0919;0,5912;56,35471583;37,50530314;15,60999966;
22:55:59:091;0,1024;-0,0919;0,5912;56,35471583;37,50530314;15,60999966;
22:55:59:100;0,1024;-0,0919;0,5912;56,35471583;37,50530314;15,60999966;
22:55:59:103;0,1019;-0,0995;0,5799;56,35471583;37,50530314;15,60999966;
22:55:59:157;0,1019;-0,0995;0,5799;56,35471583;37,50530314;15,60999966;
22:55:59:158;-0,0105;-0,0729;0,2781;56,35471583;37,50530314;15,60999966;
22:55:59:160;-0,0105;-0,0729;0,2781;56,35471583;37,50530314;15,60999966;
22:55:59:163;-0,0105;-0,0729;0,2781;56,35471583;37,50530314;15,60999966;
22:55:59:164;-0,0105;-0,0729;0,2781;56,35471583;37,50530314;15,60999966;
22:55:59:165;-0,0105;-0,0729;0,2781;56,35471583;37,50530314;15,60999966;
22:55:59:217;-0,0105;-0,0729;0,2781;56,35471583;37,50530314;15,60999966;
22:55:59:217;0,0899;-0,0943;0,5073;56,35471583;37,50530314;15,60999966;
22:55:59:221;0,0899;-0,0943;0,5073;56,35471583;37,50530314;15,60999966;
22:55:59:221;0,0899;-0,0943;0,5073;56,35471583;37,50530314;15,60999966;
22:55:59:222;0,0899;-0,0943;0,5073;56,35471583;37,50530314;15,60999966;
22:55:59:278;0,0899;-0,0943;0,5073;56,35471583;37,50530314;15,60999966;
22:55:59:280;0,0968;-0,1827;0,7033;56,35471583;37,50530314;15,60999966;
22:55:59:300;0,0968;-0,1827;0,7033;56,35471583;37,50530314;15,60999966;
22:55:59:302;0,0968;-0,1827;0,7033;56,35471583;37,50530314;15,60999966;
22:55:59:304;0,0968;-0,1827;0,7033;56,35471583;37,50530314;15,60999966;
22:55:59:305;0,0968;-0,1827;0,7033;56,35471583;37,50530314;15,60999966;
22:55:59:358;0,0968;-0,1827;0,7033;56,35471583;37,50530314;15,60999966;
22:55:59:361;0,2487;-0,1220;0,1727;56,35471583;37,50530314;15,60999966;
22:55:59:380;0,2487;-0,1220;0,1727;56,35471583;37,50530314;15,60999966;
22:55:59:383;0,2487;-0,1220;0,1727;56,35471583;37,50530314;15,60999966;
22:55:59:386;0,2487;-0,1220;0,1727;56,35471583;37,50530314;15,60999966;
22:55:59:388;0,2487;-0,1220;0,1727;56,35471583;37,50530314;15,60999966;
22:55:59:439;0,2487;-0,1220;0,1727;56,35471583;37,50530314;15,60999966;
22:55:59:442;0,4393;-0,0345;0,1045;56,35471583;37,50530314;15,60999966;
22:55:59:444;0,4393;-0,0345;0,1045;56,35471583;37,50530314;15,60999966;
22:55:59:446;0,4393;-0,0345;0,1045;56,35471583;37,50530314;15,60999966;
22:55:59:448;0,4393;-0,0345;0,1045;56,35471583;37,50530314;15,60999966;
22:55:59:500;0,4393;-0,0345;0,1045;56,35471583;37,50530314;15,60999966;
22:55:59:502;0,4015;-0,0453;0,0402;56,35471583;37,50530314;15,60999966;
22:55:59:519;0,4015;-0,0453;0,0402;56,35471583;37,50530314;15,60999966;
22:55:59:521;0,4071;-0,0400;0,0401;56,35471583;37,50530314;15,60999966;
22:55:59:523;0,4071;-0,0400;0,0401;56,35471583;37,50530314;15,60999966;
22:55:59:526;0,4071;-0,0400;0,0401;56,35471583;37,50530314;15,60999966;
22:55:59:528;0,4071;-0,0400;0,0401;56,35471583;37,50530314;15,60999966;
22:55:59:529;0,4071;-0,0400;0,0401;56,35471583;37,50530314;15,60999966;
22:55:59:580;0,4071;-0,0400;0,0401;56,35471583;37,50530314;15,60999966;
22:55:59:582;0,4084;0,0354;-0,0113;56,35471583;37,50530314;15,60999966;
22:55:59:598;0,4084;0,0354;-0,0113;56,35471583;37,50530314;15,60999966;
22:55:59:600;0,4084;0,0354;-0,0113;56,35471583;37,50530314;15,60999966;
22:55:59:603;0,4084;0,0354;-0,0113;56,35471583;37,50530314;15,60999966;
22:55:59:657;0,4084;0,0354;-0,0113;56,35471583;37,50530314;15,60999966;
22:55:59:659;0,4084;0,0354;-0,0113;56,35471583;37,50530314;15,60999966;
22:55:59:689;0,4084;0,0354;-0,0113;56,35471583;37,50530314;15,60999966;
22:55:59:692;0,2665;0,0406;-0,0335;56,35466182;37,50552703;15,93999958;
22:55:59:735;0,2665;0,0406;-0,0335;56,35466182;37,50552703;15,93999958;
22:55:59:740;0,1340;0,0435;-0,0258;56,35466182;37,50552703;15,93999958;
22:55:59:742;0,1340;0,0435;-0,0258;56,35466182;37,50552703;15,93999958;
22:55:59:744;0,1340;0,0435;-0,0258;56,35466182;37,50552703;15,93999958;
22:55:59:745;0,1340;0,0435;-0,0258;56,35466182;37,50552703;15,93999958;
22:55:59:747;0,1340;0,0435;-0,0258;56,35466182;37,50552703;15,93999958;
22:55:59:748;0,1340;0,0435;-0,0258;56,35466182;37,50552703;15,93999958;
22:55:59:791;0,1340;0,0435;-0,0258;56,35466182;37,50552703;15,93999958;
22:55:59:793;0,2052;0,0363;0,0896;56,35466182;37,50552703;15,93999958;
22:55:59:814;0,2052;0,0363;0,0896;56,35466182;37,50552703;15,93999958;
22:55:59:817;0,2052;0,0363;0,0896;56,35466182;37,50552703;15,93999958;
22:55:59:820;0,2052;0,0363;0,0896;56,35466182;37,50552703;15,93999958;
22:55:59:822;0,2052;0,0363;0,0896;56,35466182;37,50552703;15,93999958;
22:55:59:873;0,2052;0,0363;0,0896;56,35466182;37,50552703;15,93999958;
22:55:59:876;0,1561;0,0075;0,2184;56,35466182;37,50552703;15,93999958;
22:55:59:878;0,1561;0,0075;0,2184;56,35466182;37,50552703;15,93999958;
22:55:59:880;0,1561;0,0075;0,2184;56,35466182;37,50552703;15,93999958;
22:55:59:882;0,1561;0,0075;0,2184;56,35466182;37,50552703;15,93999958;
22:55:59:933;0,1561;0,0075;0,2184;56,35466182;37,50552703;15,93999958;
22:55:59:936;0,1908;-0,0279;0,3755;56,35466182;37,50552703;15,93999958;
22:55:59:957;0,1908;-0,0279;0,3755;56,35466182;37,50552703;15,93999958;
22:55:59:960;0,1908;-0,0279;0,3755;56,35466182;37,50552703;15,93999958;
22:55:59:962;0,1908;-0,0279;0,3755;56,35466182;37,50552703;15,93999958;
22:55:59:964;0,1908;-0,0279;0,3755;56,35466182;37,50552703;15,93999958;
22:55:59:966;0,1908;-0,0279;0,3755;56,35466182;37,50552703;15,93999958;
22:55:59:973;0,1821;-0,0445;0,3669;56,35466182;37,50552703;15,93999958;
22:56:00:013;0,1821;-0,0445;0,3669;56,35466182;37,50552703;15,93999958;
22:56:00:017;0,1756;-0,0193;0,2828;56,35466182;37,50552703;15,93999958;
22:56:00:032;0,1756;-0,0193;0,2828;56,35466182;37,50552703;15,93999958;
22:56:00:037;0,1756;-0,0193;0,2828;56,35466182;37,50552703;15,93999958;
22:56:00:039;0,1756;-0,0193;0,2828;56,35466182;37,50552703;15,93999958;
22:56:00:041;0,1756;-0,0193;0,2828;56,35466182;37,50552703;15,93999958;
22:56:00:083;0,1756;-0,0193;0,2828;56,35466182;37,50552703;15,93999958;
22:56:00:085;0,0917;-0,0242;0,2204;56,35466182;37,50552703;15,93999958;
22:56:00:088;0,0917;-0,0242;0,2204;56,35466182;37,50552703;15,93999958;
22:56:00:090;0,0917;-0,0242;0,2204;56,35466182;37,50552703;15,93999958;
22:56:00:091;0,0917;-0,0242;0,2204;56,35466182;37,50552703;15,93999958;
22:56:00:136;0,0917;-0,0242;0,2204;56,35466182;37,50552703;15,93999958;
22:56:00:138;0,0849;-0,0253;0,1954;56,35466182;37,50552703;15,93999958;
22:56:00:167;0,0849;-0,0253;0,1954;56,35466182;37,50552703;15,93999958;
22:56:00:170;0,0849;-0,0253;0,1954;56,35466182;37,50552703;15,93999958;
22:56:00:172;0,0849;-0,0253;0,1954;56,35466182;37,50552703;15,93999958;
22:56:00:173;0,0849;-0,0253;0,1954;56,35466182;37,50552703;15,93999958;
22:56:00:224;0,0849;-0,0253;0,1954;56,35466182;37,50552703;15,93999958;
22:56:00:228;0,1079;-0,0454;0,0591;56,35466182;37,50552703;15,93999958;
22:56:00:245;0,1079;-0,0454;0,0591;56,35466182;37,50552703;15,93999958;
22:56:00:249;0,1079;-0,0454;0,0591;56,35466182;37,50552703;15,93999958;
22:56:00:251;0,1079;-0,0454;0,0591;56,35466182;37,50552703;15,93999958;
22:56:00:254;0,1079;-0,0454;0,0591;56,35466182;37,50552703;15,93999958;
22:56:00:256;0,1079;-0,0454;0,0591;56,35466182;37,50552703;15,93999958;
22:56:00:258;0,1019;-0,0481;0,0514;56,35466182;37,50552703;15,93999958;
22:56:00:305;0,1019;-0,0481;0,0514;56,35466182;37,50552703;15,93999958;
22:56:00:308;0,1308;-0,0090;0,0063;56,35466182;37,50552703;15,93999958;
22:56:00:310;0,1308;-0,0090;0,0063;56,35466182;37,50552703;15,93999958;
22:56:00:312;0,1308;-0,0090;0,0063;56,35466182;37,50552703;15,93999958;
22:56:00:314;0,1308;-0,0090;0,0063;56,35466182;37,50552703;15,93999958;
22:56:00:365;0,1308;-0,0090;0,0063;56,35466182;37,50552703;15,93999958;
22:56:00:368;-0,0184;-0,0060;-0,0913;56,35466182;37,50552703;15,93999958;
22:56:00:387;-0,0184;-0,0060;-0,0913;56,35466182;37,50552703;15,93999958;
22:56:00:389;-0,0184;-0,0060;-0,0913;56,35466182;37,50552703;15,93999958;
22:56:00:391;-0,0184;-0,0060;-0,0913;56,35466182;37,50552703;15,93999958;
22:56:00:393;-0,0184;-0,0060;-0,0913;56,35466182;37,50552703;15,93999958;
22:56:00:458;-0,0184;-0,0060;-0,0913;56,35466182;37,50552703;15,93999958;
22:56:00:461;0,0478;-0,0577;0,1945;56,35466182;37,50552703;15,93999958;
22:56:00:464;0,0478;-0,0577;0,1945;56,35466182;37,50552703;15,93999958;
22:56:00:466;0,0478;-0,0577;0,1945;56,35466182;37,50552703;15,93999958;
22:56:00:468;0,0478;-0,0577;0,1945;56,35466182;37,50552703;15,93999958;
22:56:00:517;0,0478;-0,0577;0,1945;56,35466182;37,50552703;15,93999958;
22:56:00:520;0,1465;-0,0764;0,2300;56,35466182;37,50552703;15,93999958;
22:56:00:522;0,1465;-0,0764;0,2300;56,35466182;37,50552703;15,93999958;
22:56:00:524;0,1465;-0,0764;0,2300;56,35466182;37,50552703;15,93999958;
22:56:00:525;0,1465;-0,0764;0,2300;56,35466182;37,50552703;15,93999958;
22:56:00:576;0,1465;-0,0764;0,2300;56,35466182;37,50552703;15,93999958;
22:56:00:580;-0,0094;-0,0867;0,2090;56,35466182;37,50552703;15,93999958;
22:56:00:599;-0,0094;-0,0867;0,2090;56,35466182;37,50552703;15,93999958;
22:56:00:603;-0,0094;-0,0867;0,2090;56,35466182;37,50552703;15,93999958;
22:56:00:605;-0,0094;-0,0867;0,2090;56,35466182;37,50552703;15,93999958;
22:56:00:608;-0,0094;-0,0867;0,2090;56,35466182;37,50552703;15,93999958;
22:56:00:657;-0,0094;-0,0867;0,2090;56,35466182;37,50552703;15,93999958;
22:56:00:661;0,1563;-0,0295;-0,0310;56,35466182;37,50552703;15,93999958;
22:56:00:684;0,1563;-0,0295;-0,0310;56,35466182;37,50552703;15,93999958;
22:56:00:688;0,1307;-0,0368;-0,0288;56,35461340;37,50576981;16,01000023;
22:56:00:690;0,1307;-0,0368;-0,0288;56,35461340;37,50576981;16,01000023;
22:56:00:692;0,1307;-0,0368;-0,0288;56,35461340;37,50576981;16,01000023;
22:56:00:694;0,1307;-0,0368;-0,0288;56,35461340;37,50576981;16,01000023;
22:56:00:696;0,1307;-0,0368;-0,0288;56,35461340;37,50576981;16,01000023;
