
time;ax;ay;az;Latitude;Longitude;Speed (m/s);
16:14:00:712;0,0000;0,0000;0,0000;0,00000000;0,00000000;0,00000000;
16:14:00:778;0,0000;0,0000;0,0000;0,00000000;0,00000000;0,00000000;
16:14:00:779;0,0000;0,0000;0,0000;0,00000000;0,00000000;0,00000000;
16:14:00:779;0,0000;0,0000;-0,0000;0,00000000;0,00000000;0,00000000;
16:14:00:819;0,0000;0,0000;-0,0000;0,00000000;0,00000000;0,00000000;
16:14:00:820;0,0000;0,0000;-0,0000;0,00000000;0,00000000;0,00000000;
16:14:00:839;0,0000;0,0000;-0,0000;0,00000000;0,00000000;0,00000000;
16:14:00:861;0,0000;0,0000;-0,0000;0,00000000;0,00000000;0,00000000;
16:14:00:862;-0,0201;-0,0047;0,1025;0,00000000;0,00000000;0,00000000;
16:14:00:880;-0,0201;-0,0047;0,1025;0,00000000;0,00000000;0,00000000;
16:14:00:898;-0,0201;-0,0047;0,1025;0,00000000;0,00000000;0,00000000;
16:14:00:900;-0,0069;-0,0009;0,0514;0,00000000;0,00000000;0,00000000;
16:14:00:978;-0,0069;-0,0009;0,0514;0,00000000;0,00000000;0,00000000;
16:14:00:980;-0,0034;0,0001;0,0257;0,00000000;0,00000000;0,00000000;
16:14:00:981;-0,0034;0,0001;0,0257;0,00000000;0,00000000;0,00000000;
16:14:01:039;-0,0034;0,0001;0,0257;0,00000000;0,00000000;0,00000000;
16:14:01:040;-0,0034;0,0001;0,0257;0,00000000;0,00000000;0,00000000;
16:14:01:041;0,0150;0,0037;-0,0941;0,00000000;0,00000000;0,00000000;
16:14:01:099;0,0150;0,0037;-0,0941;0,00000000;0,00000000;0,00000000;
16:14:01:100;-0,0336;-0,0249;-0,0380;0,00000000;0,00000000;0,00000000;
16:14:01:102;-0,0336;-0,0249;-0,0380;0,00000000;0,00000000;0,00000000;
16:14:01:190;-0,0336;-0,0249;-0,0380;0,00000000;0,00000000;0,00000000;
16:14:01:192;-0,0336;-0,0249;-0,0380;0,00000000;0,00000000;0,00000000;
16:14:01:193;0,0180;-0,0031;0,0695;0,00000000;0,00000000;0,00000000;
16:14:01:251;0,0180;-0,0031;0,0695;0,00000000;0,00000000;0,00000000;
16:14:01:251;0,0180;-0,0031;0,0695;0,00000000;0,00000000;0,00000000;
16:14:01:252;-0,0463;-0,0037;-0,0240;0,00000000;0,00000000;0,00000000;
16:14:01:312;-0,0463;-0,0037;-0,0240;0,00000000;0,00000000;0,00000000;
16:14:01:313;-0,0463;-0,0037;-0,0240;0,00000000;0,00000000;0,00000000;
16:14:01:313;-0,0496;0,0030;-0,0954;0,00000000;0,00000000;0,00000000;
16:14:01:370;-0,0496;0,0030;-0,0954;0,00000000;0,00000000;0,00000000;
16:14:01:372;-0,0496;0,0030;-0,0954;0,00000000;0,00000000;0,00000000;
16:14:01:372;0,0546;-0,0216;-0,1129;0,00000000;0,00000000;0,00000000;
16:14:01:396;0,0546;-0,0216;-0,1129;0,00000000;0,00000000;0,00000000;
16:14:01:401;0,0546;-0,0216;-0,1129;0,00000000;0,00000000;0,00000000;
16:14:01:402;0,0286;0,0119;-0,1026;0,00000000;0,00000000;0,00000000;
16:14:01:451;0,0286;0,0119;-0,1026;0,00000000;0,00000000;0,00000000;
16:14:01:452;0,0286;0,0119;-0,1026;0,00000000;0,00000000;0,00000000;
16:14:01:452;0,0342;0,0215;0,0818;0,00000000;0,00000000;0,00000000;
16:14:01:512;0,0342;0,0215;0,0818;0,00000000;0,00000000;0,00000000;
16:14:01:513;0,0342;0,0215;0,0818;0,00000000;0,00000000;0,00000000;
16:14:01:513;-0,0031;-0,0030;0,1400;0,00000000;0,00000000;0,00000000;
16:14:01:572;-0,0031;-0,0030;0,1400;0,00000000;0,00000000;0,00000000;
16:14:01:573;-0,0031;-0,0030;0,1400;0,00000000;0,00000000;0,00000000;
16:14:01:574;-0,0199;-0,0121;-0,0561;0,00000000;0,00000000;0,00000000;
16:14:01:632;-0,0199;-0,0121;-0,0561;0,00000000;0,00000000;0,00000000;
16:14:01:634;-0,0199;-0,0121;-0,0561;0,00000000;0,00000000;0,00000000;
16:14:01:635;0,0728;-0,0054;-0,1700;0,00000000;0,00000000;0,00000000;
16:14:01:714;0,0728;-0,0054;-0,1700;0,00000000;0,00000000;0,00000000;
16:14:01:716;0,0728;-0,0054;-0,1700;0,00000000;0,00000000;0,00000000;
16:14:01:717;-0,0206;-0,0254;-0,0261;0,00000000;0,00000000;0,00000000;
16:14:01:774;-0,0206;-0,0254;-0,0261;0,00000000;0,00000000;0,00000000;
16:14:01:777;-0,0206;-0,0254;-0,0261;0,00000000;0,00000000;0,00000000;
16:14:01:780;-0,0224;0,0014;0,0277;0,00000000;0,00000000;0,00000000;
16:14:01:835;-0,0224;0,0014;0,0277;0,00000000;0,00000000;0,00000000;
16:14:01:837;-0,0224;0,0014;0,0277;0,00000000;0,00000000;0,00000000;
16:14:01:839;0,0532;0,0198;-0,0360;0,00000000;0,00000000;0,00000000;
16:14:01:898;0,0532;0,0198;-0,0360;0,00000000;0,00000000;0,00000000;
16:14:01:900;0,0532;0,0198;-0,0360;0,00000000;0,00000000;0,00000000;
16:14:01:902;0,0335;0,0070;-0,0382;0,00000000;0,00000000;0,00000000;
16:14:01:976;0,0335;0,0070;-0,0382;0,00000000;0,00000000;0,00000000;
16:14:01:978;0,0335;0,0070;-0,0382;0,00000000;0,00000000;0,00000000;
16:14:01:981;-0,0155;0,0234;-0,0469;0,00000000;0,00000000;0,00000000;
16:14:02:035;-0,0155;0,0234;-0,0469;0,00000000;0,00000000;0,00000000;
16:14:02:036;-0,0155;0,0234;-0,0469;0,00000000;0,00000000;0,00000000;
16:14:02:037;0,0465;0,0238;-0,0573;0,00000000;0,00000000;0,00000000;
16:14:02:097;0,0465;0,0238;-0,0573;0,00000000;0,00000000;0,00000000;
16:14:02:101;0,0465;0,0238;-0,0573;0,00000000;0,00000000;0,00000000;
16:14:02:103;-0,0071;0,0300;0,0594;0,00000000;0,00000000;0,00000000;
16:14:02:157;-0,0071;0,0300;0,0594;0,00000000;0,00000000;0,00000000;
16:14:02:159;-0,0071;0,0300;0,0594;0,00000000;0,00000000;0,00000000;
16:14:02:161;-0,0416;0,0419;0,0003;0,00000000;0,00000000;0,00000000;
16:14:02:181;-0,0416;0,0419;0,0003;0,00000000;0,00000000;0,00000000;
16:14:02:183;-0,0416;0,0419;0,0003;0,00000000;0,00000000;0,00000000;
16:14:02:186;-0,0350;0,0064;-0,0484;0,00000000;0,00000000;0,00000000;
16:14:02:236;-0,0350;0,0064;-0,0484;0,00000000;0,00000000;0,00000000;
16:14:02:239;-0,0350;0,0064;-0,0484;0,00000000;0,00000000;0,00000000;
16:14:02:240;-0,0419;0,0370;-0,0467;0,00000000;0,00000000;0,00000000;
16:14:02:298;-0,0419;0,0370;-0,0467;0,00000000;0,00000000;0,00000000;
16:14:02:301;0,0547;0,0301;0,0081;0,00000000;0,00000000;0,00000000;
16:14:02:303;0,0547;0,0301;0,0081;0,00000000;0,00000000;0,00000000;
16:14:02:356;0,0547;0,0301;0,0081;0,00000000;0,00000000;0,00000000;
16:14:02:358;0,0547;0,0301;0,0081;0,00000000;0,00000000;0,00000000;
16:14:02:361;0,0805;0,0079;0,0072;0,00000000;0,00000000;0,00000000;
16:14:02:418;0,0805;0,0079;0,0072;0,00000000;0,00000000;0,00000000;
16:14:02:420;0,0805;0,0079;0,0072;0,00000000;0,00000000;0,00000000;
16:14:02:423;0,0234;0,0125;0,0731;0,00000000;0,00000000;0,00000000;
16:14:02:499;-0,0529;0,0106;-0,0124;0,00000000;0,00000000;0,00000000;
16:14:02:503;-0,0529;0,0106;-0,0124;0,00000000;0,00000000;0,00000000;
16:14:02:504;-0,0529;0,0106;-0,0124;0,00000000;0,00000000;0,00000000;
16:14:02:557;-0,0529;0,0106;-0,0124;0,00000000;0,00000000;0,00000000;
16:14:02:561;-0,0529;0,0106;-0,0124;0,00000000;0,00000000;0,00000000;
16:14:02:563;-0,0291;0,0096;-0,0603;0,00000000;0,00000000;0,00000000;
16:14:02:619;-0,0291;0,0096;-0,0603;0,00000000;0,00000000;0,00000000;
16:14:02:620;-0,0291;0,0096;-0,0603;0,00000000;0,00000000;0,00000000;
16:14:02:622;0,0158;0,0331;-0,0040;0,00000000;0,00000000;0,00000000;
16:14:02:679;0,0158;0,0331;-0,0040;0,00000000;0,00000000;0,00000000;
16:14:02:680;0,0158;0,0331;-0,0040;0,00000000;0,00000000;0,00000000;
16:14:02:682;0,0270;0,0132;-0,1057;0,00000000;0,00000000;0,00000000;
16:14:02:762;0,0270;0,0132;-0,1057;0,00000000;0,00000000;0,00000000;
16:14:02:766;0,0149;0,0061;-0,0922;0,00000000;0,00000000;0,00000000;
16:14:02:768;0,0149;0,0061;-0,0922;0,00000000;0,00000000;0,00000000;
16:14:02:819;0,0149;0,0061;-0,0922;0,00000000;0,00000000;0,00000000;
16:14:02:820;0,0149;0,0061;-0,0922;0,00000000;0,00000000;0,00000000;
16:14:02:821;0,0024;0,0144;0,0571;0,00000000;0,00000000;0,00000000;
16:14:02:880;-0,0073;0,0047;0,0931;0,00000000;0,00000000;0,00000000;
16:14:02:882;-0,0073;0,0047;0,0931;0,00000000;0,00000000;0,00000000;
16:14:02:884;-0,0073;0,0047;0,0931;0,00000000;0,00000000;0,00000000;
16:14:02:939;-0,0073;0,0047;0,0931;0,00000000;0,00000000;0,00000000;
16:14:02:940;-0,0073;0,0047;0,0931;0,00000000;0,00000000;0,00000000;
16:14:02:942;-0,0295;0,0225;-0,0241;0,00000000;0,00000000;0,00000000;
16:14:02:964;0,0422;0,0185;-0,1209;0,00000000;0,00000000;0,00000000;
16:14:02:965;0,0422;0,0185;-0,1209;0,00000000;0,00000000;0,00000000;
16:14:02:967;0,0422;0,0185;-0,1209;0,00000000;0,00000000;0,00000000;
16:14:03:020;0,0422;0,0185;-0,1209;0,00000000;0,00000000;0,00000000;
16:14:03:021;0,0422;0,0185;-0,1209;0,00000000;0,00000000;0,00000000;
16:14:03:022;0,0591;0,0311;0,0127;0,00000000;0,00000000;0,00000000;
16:14:03:081;0,0591;0,0311;0,0127;0,00000000;0,00000000;0,00000000;
16:14:03:082;0,0591;0,0311;0,0127;0,00000000;0,00000000;0,00000000;
16:14:03:084;0,0863;0,0242;0,1319;0,00000000;0,00000000;0,00000000;
16:14:03:141;0,0863;0,0242;0,1319;0,00000000;0,00000000;0,00000000;
16:14:03:142;0,0863;0,0242;0,1319;0,00000000;0,00000000;0,00000000;
16:14:03:143;0,0940;0,0135;0,0170;0,00000000;0,00000000;0,00000000;
16:14:03:202;0,0940;0,0135;0,0170;0,00000000;0,00000000;0,00000000;
16:14:03:204;0,0940;0,0135;0,0170;0,00000000;0,00000000;0,00000000;
16:14:03:206;-0,0520;-0,0060;0,0169;0,00000000;0,00000000;0,00000000;
16:14:03:282;-0,0520;-0,0060;0,0169;0,00000000;0,00000000;0,00000000;
16:14:03:283;-0,0520;-0,0060;0,0169;0,00000000;0,00000000;0,00000000;
16:14:03:285;-0,1090;-0,0136;-0,0125;0,00000000;0,00000000;0,00000000;
16:14:03:341;-0,1090;-0,0136;-0,0125;0,00000000;0,00000000;0,00000000;
16:14:03:343;-0,1090;-0,0136;-0,0125;56,35362010;37,50993421;2,77999997;
16:14:03:345;-0,0442;-0,0143;-0,0821;56,35362010;37,50993421;2,77999997;
16:14:03:402;-0,0442;-0,0143;-0,0821;56,35362010;37,50993421;2,77999997;
16:14:03:403;-0,0442;-0,0143;-0,0821;56,35362010;37,50993421;2,77999997;
16:14:03:404;0,1179;0,0590;-0,1339;56,35362010;37,50993421;2,77999997;
16:14:03:465;0,1179;0,0590;-0,1339;56,35362010;37,50993421;2,77999997;
16:14:03:467;0,1179;0,0590;-0,1339;56,35362010;37,50993421;2,77999997;
16:14:03:469;0,0301;-0,0266;0,1337;56,35362010;37,50993421;2,77999997;
16:14:03:546;0,0301;-0,0266;0,1337;56,35362010;37,50993421;2,77999997;
16:14:03:548;0,0301;-0,0266;0,1337;56,35362010;37,50993421;2,77999997;
16:14:03:550;-0,1846;-0,1103;0,0274;56,35362010;37,50993421;2,77999997;
16:14:03:605;-0,1846;-0,1103;0,0274;56,35362010;37,50993421;2,77999997;
16:14:03:607;-0,1846;-0,1103;0,0274;56,35362010;37,50993421;2,77999997;
16:14:03:608;-0,0706;0,0051;0,0791;56,35362010;37,50993421;2,77999997;
16:14:03:664;-0,0706;0,0051;0,0791;56,35362010;37,50993421;2,77999997;
16:14:03:665;-0,0706;0,0051;0,0791;56,35362010;37,50993421;2,77999997;
16:14:03:667;0,1081;0,0123;0,0774;56,35362010;37,50993421;2,77999997;
16:14:03:724;0,1081;0,0123;0,0774;56,35362010;37,50993421;2,77999997;
16:14:03:726;0,1081;0,0123;0,0774;56,35362010;37,50993421;2,77999997;
16:14:03:728;0,1115;-0,0480;0,0309;56,35362010;37,50993421;2,77999997;
16:14:03:749;0,1115;-0,0480;0,0309;56,35362010;37,50993421;2,77999997;
16:14:03:751;0,1115;-0,0480;0,0309;56,35362010;37,50993421;2,77999997;
16:14:03:753;-0,0298;-0,0348;0,0024;56,35362010;37,50993421;2,77999997;
16:14:03:805;-0,0298;-0,0348;0,0024;56,35362010;37,50993421;2,77999997;
16:14:03:807;-0,0298;-0,0348;0,0024;56,35362010;37,50993421;2,77999997;
16:14:03:809;-0,0467;0,0074;0,0076;56,35362010;37,50993421;2,77999997;
16:14:03:867;-0,0467;0,0074;0,0076;56,35362010;37,50993421;2,77999997;
16:14:03:869;-0,0467;0,0074;0,0076;56,35362010;37,50993421;2,77999997;
16:14:03:871;-0,0324;-0,0368;0,0089;56,35362010;37,50993421;2,77999997;
16:14:03:926;-0,0324;-0,0368;0,0089;56,35362010;37,50993421;2,77999997;
16:14:03:928;-0,0324;-0,0368;0,0089;56,35362010;37,50993421;2,77999997;
16:14:03:932;0,0121;-0,0050;-0,1264;56,35362010;37,50993421;2,77999997;
16:14:03:985;0,0121;-0,0050;-0,1264;56,35362010;37,50993421;2,77999997;
16:14:03:987;-0,0148;0,0496;-0,1096;56,35362010;37,50993421;2,77999997;
16:14:03:989;-0,0148;0,0496;-0,1096;56,35362010;37,50993421;2,77999997;
16:14:04:067;-0,0148;0,0496;-0,1096;56,35362010;37,50993421;2,77999997;
16:14:04:069;-0,0148;0,0496;-0,1096;56,35362010;37,50993421;2,77999997;
16:14:04:071;-0,0585;-0,0408;-0,0071;56,35362010;37,50993421;2,77999997;
16:14:04:127;-0,0585;-0,0408;-0,0071;56,35362010;37,50993421;2,77999997;
16:14:04:130;-0,0585;-0,0408;-0,0071;56,35362010;37,50993421;2,77999997;
16:14:04:133;-0,0028;0,0454;0,0721;56,35362010;37,50993421;2,77999997;
16:14:04:186;-0,0028;0,0454;0,0721;56,35362010;37,50993421;2,77999997;
16:14:04:188;-0,0028;0,0454;0,0721;56,35362010;37,50993421;2,77999997;
16:14:04:190;0,0964;0,0074;0,0482;56,35362010;37,50993421;2,77999997;
16:14:04:247;0,0964;0,0074;0,0482;56,35362010;37,50993421;2,77999997;
16:14:04:249;0,0964;0,0074;0,0482;56,35362010;37,50993421;2,77999997;
16:14:04:250;-0,0684;-0,0234;0,0644;56,35362010;37,50993421;2,77999997;
16:14:04:329;-0,0684;-0,0234;0,0644;56,35362010;37,50993421;2,77999997;
16:14:04:331;-0,0908;0,0121;0,1575;56,35362010;37,50993421;2,77999997;
16:14:04:334;-0,0908;0,0121;0,1575;56,35362010;37,50993421;2,77999997;
16:14:04:389;-0,0908;0,0121;0,1575;56,35362010;37,50993421;2,77999997;
16:14:04:392;-0,0908;0,0121;0,1575;56,35362010;37,50993421;2,77999997;
16:14:04:394;0,0568;-0,0404;0,0967;56,35362010;37,50993421;2,77999997;
16:14:04:449;0,0568;-0,0404;0,0967;56,35362010;37,50993421;2,77999997;
16:14:04:452;0,0568;-0,0404;0,0967;56,35362010;37,50993421;2,77999997;
16:14:04:454;0,1023;-0,0205;0,0453;56,35362010;37,50993421;2,77999997;
16:14:04:510;0,1023;-0,0205;0,0453;56,35362010;37,50993421;2,77999997;
16:14:04:513;0,1023;-0,0205;0,0453;56,35362010;37,50993421;2,77999997;
16:14:04:515;0,0320;-0,0180;-0,0676;56,35362010;37,50993421;2,77999997;
16:14:04:535;0,0320;-0,0180;-0,0676;56,35362010;37,50993421;2,77999997;
16:14:04:538;0,0320;-0,0180;-0,0676;56,35362010;37,50993421;2,77999997;
16:14:04:540;-0,0704;-0,0339;-0,0579;56,35362010;37,50993421;2,77999997;
16:14:04:590;-0,0704;-0,0339;-0,0579;56,35362010;37,50993421;2,77999997;
16:14:04:593;-0,0704;-0,0339;-0,0579;56,35362010;37,50993421;2,77999997;
16:14:04:595;-0,0691;-0,0131;-0,0703;56,35362010;37,50993421;2,77999997;
16:14:04:650;-0,0691;-0,0131;-0,0703;56,35362010;37,50993421;2,77999997;
16:14:04:653;-0,0691;-0,0131;-0,0703;56,35362010;37,50993421;2,77999997;
16:14:04:655;0,0036;0,0265;-0,0565;56,35362010;37,50993421;2,77999997;
16:14:04:710;0,0036;0,0265;-0,0565;56,35362010;37,50993421;2,77999997;
16:14:04:712;0,0036;0,0265;-0,0565;56,35362010;37,50993421;2,77999997;
16:14:04:716;0,1137;0,0248;-0,0252;56,35362010;37,50993421;2,77999997;
16:14:04:771;0,1137;0,0248;-0,0252;56,35362010;37,50993421;2,77999997;
16:14:04:773;0,1137;0,0248;-0,0252;56,35362010;37,50993421;2,77999997;
16:14:04:775;0,0135;0,0262;-0,0022;56,35362010;37,50993421;2,77999997;
16:14:04:841;0,0135;0,0262;-0,0022;56,35362010;37,50993421;2,77999997;
16:14:04:844;0,0135;0,0262;-0,0022;56,35362010;37,50993421;2,77999997;
16:14:04:846;-0,0754;0,0216;0,1294;56,35362010;37,50993421;2,77999997;
16:14:04:902;-0,0754;0,0216;0,1294;56,35362010;37,50993421;2,77999997;
16:14:04:904;-0,0754;0,0216;0,1294;56,35362010;37,50993421;2,77999997;
16:14:04:906;-0,0110;0,0221;0,0678;56,35362010;37,50993421;2,77999997;
16:14:04:962;-0,0110;0,0221;0,0678;56,35362010;37,50993421;2,77999997;
16:14:04:964;-0,0110;0,0221;0,0678;56,35362010;37,50993421;2,77999997;
16:14:04:968;-0,0013;0,0401;0,0529;56,35362010;37,50993421;2,77999997;
16:14:05:022;-0,0013;0,0401;0,0529;56,35362010;37,50993421;2,77999997;
16:14:05:025;-0,0013;0,0401;0,0529;56,35362010;37,50993421;2,77999997;
16:14:05:027;-0,0425;0,0014;0,0232;56,35362010;37,50993421;2,77999997;
16:14:05:102;-0,0425;0,0014;0,0232;56,35362010;37,50993421;2,77999997;
16:14:05:105;-0,0425;0,0014;0,0232;56,35362010;37,50993421;2,77999997;
16:14:05:106;0,0269;0,0254;-0,0293;56,35362010;37,50993421;2,77999997;
16:14:05:163;0,0269;0,0254;-0,0293;56,35362010;37,50993421;2,77999997;
16:14:05:166;0,0269;0,0254;-0,0293;56,35362010;37,50993421;2,77999997;
16:14:05:169;0,0271;0,0572;-0,0589;56,35362010;37,50993421;2,77999997;
16:14:05:222;0,0271;0,0572;-0,0589;56,35362010;37,50993421;2,77999997;
16:14:05:224;0,0271;0,0572;-0,0589;56,35364190;37,51000295;3,25000000;
16:14:05:226;-0,0354;0,0314;-0,0380;56,35364190;37,51000295;3,25000000;
16:14:05:284;-0,0354;0,0314;-0,0380;56,35364190;37,51000295;3,25000000;
16:14:05:287;0,0214;0,0268;-0,0268;56,35364190;37,51000295;3,25000000;
16:14:05:290;0,0214;0,0268;-0,0268;56,35364190;37,51000295;3,25000000;
16:14:05:313;0,0214;0,0268;-0,0268;56,35364190;37,51000295;3,25000000;
16:14:05:316;0,0262;0,0230;-0,0235;56,35364190;37,51000295;3,25000000;
16:14:05:364;0,0262;0,0230;-0,0235;56,35364190;37,51000295;3,25000000;
16:14:05:367;0,0262;0,0230;-0,0235;56,35364190;37,51000295;3,25000000;
16:14:05:369;0,0792;0,0442;0,0221;56,35364190;37,51000295;3,25000000;
16:14:05:424;0,0792;0,0442;0,0221;56,35364190;37,51000295;3,25000000;
16:14:05:427;0,0792;0,0442;0,0221;56,35364190;37,51000295;3,25000000;
16:14:05:429;-0,0302;0,0651;0,0155;56,35364190;37,51000295;3,25000000;
16:14:05:485;-0,0302;0,0651;0,0155;56,35364190;37,51000295;3,25000000;
16:14:05:488;-0,0302;0,0651;0,0155;56,35364190;37,51000295;3,25000000;
16:14:05:490;-0,0458;0,0354;0,0665;56,35364190;37,51000295;3,25000000;
16:14:05:546;-0,0458;0,0354;0,0665;56,35364190;37,51000295;3,25000000;
16:14:05:548;-0,0458;0,0354;0,0665;56,35364190;37,51000295;3,25000000;
16:14:05:550;-0,0409;0,0445;-0,0331;56,35364190;37,51000295;3,25000000;
16:14:05:575;-0,0409;0,0445;-0,0331;56,35364190;37,51000295;3,25000000;
16:14:05:636;-0,0409;0,0445;-0,0331;56,35364190;37,51000295;3,25000000;
16:14:05:638;-0,0409;0,0445;-0,0331;56,35364190;37,51000295;3,25000000;
16:14:05:640;0,0377;0,0440;0,0005;56,35364190;37,51000295;3,25000000;
16:14:05:667;0,0368;0,0396;0,0006;56,35364190;37,51000295;3,25000000;
16:14:05:670;0,0368;0,0396;0,0006;56,35364190;37,51000295;3,25000000;
16:14:05:726;0,0368;0,0396;0,0006;56,35364190;37,51000295;3,25000000;
16:14:05:729;0,0368;0,0396;0,0006;56,35364190;37,51000295;3,25000000;
16:14:05:732;0,0226;0,0562;-0,0164;56,35364190;37,51000295;3,25000000;
16:14:05:787;0,0226;0,0562;-0,0164;56,35364190;37,51000295;3,25000000;
16:14:05:790;0,0226;0,0562;-0,0164;56,35364190;37,51000295;3,25000000;
16:14:05:792;-0,0857;0,0510;-0,0449;56,35364190;37,51000295;3,25000000;
16:14:05:836;-0,0857;0,0510;-0,0449;56,35364190;37,51000295;3,25000000;
16:14:05:896;-0,0857;0,0510;-0,0449;56,35364190;37,51000295;3,25000000;
16:14:05:898;0,0137;0,0416;0,1346;56,35364190;37,51000295;3,25000000;
16:14:05:899;0,0137;0,0416;0,1346;56,35364190;37,51000295;3,25000000;
16:14:05:956;0,0050;0,0200;0,0101;56,35364190;37,51000295;3,25000000;
16:14:05:960;0,0050;0,0200;0,0101;56,35364190;37,51000295;3,25000000;
16:14:05:961;0,0050;0,0200;0,0101;56,35364190;37,51000295;3,25000000;
16:14:06:016;0,0050;0,0200;0,0101;56,35364190;37,51000295;3,25000000;
16:14:06:017;0,0050;0,0200;0,0101;56,35364190;37,51000295;3,25000000;
16:14:06:018;0,0376;0,0360;0,0004;56,35364190;37,51000295;3,25000000;
16:14:06:077;0,0376;0,0360;0,0004;56,35364190;37,51000295;3,25000000;
16:14:06:078;0,0376;0,0360;0,0004;56,35364190;37,51000295;3,25000000;
16:14:06:079;0,0934;0,0388;-0,0182;56,35364190;37,51000295;3,25000000;
16:14:06:097;0,0934;0,0388;-0,0182;56,35364190;37,51000295;3,25000000;
16:14:06:099;0,0934;0,0388;-0,0182;56,35364190;37,51000295;3,25000000;
16:14:06:099;-0,0638;0,0246;-0,0659;56,35364190;37,51000295;3,25000000;
16:14:06:157;-0,0638;0,0246;-0,0659;56,35364190;37,51000295;3,25000000;
16:14:06:159;-0,0638;0,0246;-0,0659;56,35364190;37,51000295;3,25000000;
16:14:06:160;-0,1650;0,0214;-0,0954;56,35364190;37,51000295;3,25000000;
16:14:06:237;-0,1650;0,0214;-0,0954;56,35364190;37,51000295;3,25000000;
16:14:06:239;-0,1650;0,0214;-0,0954;56,35363576;37,51004522;3,38000011;
16:14:06:241;-0,0818;0,0387;0,0306;56,35363576;37,51004522;3,38000011;
16:14:06:299;-0,0818;0,0387;0,0306;56,35363576;37,51004522;3,38000011;
16:14:06:300;-0,0818;0,0387;0,0306;56,35363576;37,51004522;3,38000011;
16:14:06:300;-0,0039;0,0170;0,0742;56,35363576;37,51004522;3,38000011;
16:14:06:360;-0,0039;0,0170;0,0742;56,35363576;37,51004522;3,38000011;
16:14:06:363;-0,0039;0,0170;0,0742;56,35363576;37,51004522;3,38000011;
16:14:06:365;0,1049;0,0428;0,0564;56,35363576;37,51004522;3,38000011;
16:14:06:419;0,1049;0,0428;0,0564;56,35363576;37,51004522;3,38000011;
16:14:06:421;0,1049;0,0428;0,0564;56,35363576;37,51004522;3,38000011;
16:14:06:422;0,1092;0,0345;-0,0903;56,35363576;37,51004522;3,38000011;
16:14:06:480;0,1092;0,0345;-0,0903;56,35363576;37,51004522;3,38000011;
16:14:06:483;0,1092;0,0345;-0,0903;56,35363576;37,51004522;3,38000011;
16:14:06:484;-0,0424;0,0278;-0,0834;56,35363576;37,51004522;3,38000011;
16:14:06:541;-0,0424;0,0278;-0,0834;56,35363576;37,51004522;3,38000011;
16:14:06:543;-0,0424;0,0278;-0,0834;56,35363576;37,51004522;3,38000011;
16:14:06:545;-0,0518;0,0200;0,0360;56,35363576;37,51004522;3,38000011;
16:14:06:601;-0,0518;0,0200;0,0360;56,35363576;37,51004522;3,38000011;
16:14:06:604;-0,0518;0,0200;0,0360;56,35363576;37,51004522;3,38000011;
16:14:06:606;-0,0459;0,0499;0,0066;56,35363576;37,51004522;3,38000011;
16:14:06:684;-0,0459;0,0499;0,0066;56,35363576;37,51004522;3,38000011;
16:14:06:686;-0,0459;0,0499;0,0066;56,35363576;37,51004522;3,38000011;
16:14:06:689;0,0046;0,0097;0,0172;56,35363576;37,51004522;3,38000011;
16:14:06:741;0,0419;0,0224;0,0377;56,35363576;37,51004522;3,38000011;
16:14:06:745;0,0419;0,0224;0,0377;56,35363576;37,51004522;3,38000011;
16:14:06:747;0,0419;0,0224;0,0377;56,35363576;37,51004522;3,38000011;
16:14:06:803;0,0419;0,0224;0,0377;56,35363576;37,51004522;3,38000011;
16:14:06:805;0,0419;0,0224;0,0377;56,35363576;37,51004522;3,38000011;
16:14:06:807;0,0132;-0,0062;0,0243;56,35363576;37,51004522;3,38000011;
16:14:06:862;0,0132;-0,0062;0,0243;56,35363576;37,51004522;3,38000011;
16:14:06:865;0,0132;-0,0062;0,0243;56,35363576;37,51004522;3,38000011;
16:14:06:867;-0,0417;0,0008;-0,0356;56,35363576;37,51004522;3,38000011;
16:14:06:884;-0,0417;0,0008;-0,0356;56,35363576;37,51004522;3,38000011;
16:14:06:886;-0,0417;0,0008;-0,0356;56,35363576;37,51004522;3,38000011;
16:14:06:894;-0,0205;0,0187;-0,0911;56,35363576;37,51004522;3,38000011;
16:14:06:943;-0,0205;0,0187;-0,0911;56,35363576;37,51004522;3,38000011;
16:14:06:945;-0,0205;0,0187;-0,0911;56,35363576;37,51004522;3,38000011;
16:14:06:949;0,0183;0,0275;0,0137;56,35363576;37,51004522;3,38000011;
16:14:07:004;0,0183;0,0275;0,0137;56,35363576;37,51004522;3,38000011;
16:14:07:006;0,0183;0,0275;0,0137;56,35363576;37,51004522;3,38000011;
16:14:07:008;-0,0283;-0,0118;0,0108;56,35363576;37,51004522;3,38000011;
16:14:07:063;-0,0283;-0,0118;0,0108;56,35363576;37,51004522;3,38000011;
16:14:07:066;-0,0283;-0,0118;0,0108;56,35363576;37,51004522;3,38000011;
16:14:07:068;0,0948;0,0077;0,0083;56,35363576;37,51004522;3,38000011;
16:14:07:124;0,0948;0,0077;0,0083;56,35363576;37,51004522;3,38000011;
16:14:07:127;0,0948;0,0077;0,0083;56,35363576;37,51004522;3,38000011;
16:14:07:129;0,0575;0,0215;0,0085;56,35363576;37,51004522;3,38000011;
16:14:07:200;0,0575;0,0215;0,0085;56,35363576;37,51004522;3,38000011;
16:14:07:202;0,0575;0,0215;0,0085;56,35363146;37,51010517;3,60999990;
16:14:07:204;-0,0936;-0,0096;-0,0506;56,35363146;37,51010517;3,60999990;
16:14:07:253;-0,0936;-0,0096;-0,0506;56,35363146;37,51010517;3,60999990;
16:14:07:256;-0,0936;-0,0096;-0,0506;56,35363146;37,51010517;3,60999990;
16:14:07:258;-0,0786;-0,0186;-0,0485;56,35363146;37,51010517;3,60999990;
16:14:07:314;-0,0786;-0,0186;-0,0485;56,35363146;37,51010517;3,60999990;
16:14:07:317;-0,0786;-0,0186;-0,0485;56,35363146;37,51010517;3,60999990;
16:14:07:318;0,0021;0,0157;0,0178;56,35363146;37,51010517;3,60999990;
16:14:07:375;0,0021;0,0157;0,0178;56,35363146;37,51010517;3,60999990;
16:14:07:379;0,0021;0,0157;0,0178;56,35363146;37,51010517;3,60999990;
16:14:07:381;-0,0363;0,0033;0,0208;56,35363146;37,51010517;3,60999990;
16:14:07:466;-0,0363;0,0033;0,0208;56,35363146;37,51010517;3,60999990;
16:14:07:468;-0,0363;0,0033;0,0208;56,35363146;37,51010517;3,60999990;
16:14:07:470;0,0492;-0,0268;0,0500;56,35363146;37,51010517;3,60999990;
16:14:07:526;0,0492;-0,0268;0,0500;56,35363146;37,51010517;3,60999990;
16:14:07:529;0,1010;0,0078;0,0288;56,35363146;37,51010517;3,60999990;
16:14:07:531;0,1010;0,0078;0,0288;56,35363146;37,51010517;3,60999990;
16:14:07:586;0,1010;0,0078;0,0288;56,35363146;37,51010517;3,60999990;
16:14:07:589;0,1010;0,0078;0,0288;56,35363146;37,51010517;3,60999990;
16:14:07:591;0,0376;-0,0039;-0,0099;56,35363146;37,51010517;3,60999990;
16:14:07:646;0,0376;-0,0039;-0,0099;56,35363146;37,51010517;3,60999990;
16:14:07:648;0,0376;-0,0039;-0,0099;56,35363146;37,51010517;3,60999990;
16:14:07:650;-0,0005;-0,0184;-0,0179;56,35363146;37,51010517;3,60999990;
16:14:07:667;-0,0005;-0,0184;-0,0179;56,35363146;37,51010517;3,60999990;
16:14:07:670;-0,0005;-0,0184;-0,0179;56,35363146;37,51010517;3,60999990;
16:14:07:672;-0,0836;-0,0092;-0,0677;56,35363146;37,51010517;3,60999990;
16:14:07:767;-0,0836;-0,0092;-0,0677;56,35363146;37,51010517;3,60999990;
16:14:07:770;-0,0836;-0,0092;-0,0677;56,35363146;37,51010517;3,60999990;
16:14:07:776;-0,0382;0,0033;-0,0421;56,35363146;37,51010517;3,60999990;
16:14:07:827;-0,0382;0,0033;-0,0421;56,35363146;37,51010517;3,60999990;
16:14:07:830;-0,0382;0,0033;-0,0421;56,35363146;37,51010517;3,60999990;
16:14:07:833;0,0282;-0,0021;0,0680;56,35363146;37,51010517;3,60999990;
16:14:07:887;0,0282;-0,0021;0,0680;56,35363146;37,51010517;3,60999990;
16:14:07:890;0,0282;-0,0021;0,0680;56,35363146;37,51010517;3,60999990;
16:14:07:892;0,0046;0,0391;0,0833;56,35363146;37,51010517;3,60999990;
16:14:07:930;0,0046;0,0391;0,0833;56,35363146;37,51010517;3,60999990;
16:14:07:933;0,0046;0,0391;0,0833;56,35363146;37,51010517;3,60999990;
16:14:07:935;-0,0266;0,0504;-0,0417;56,35363146;37,51010517;3,60999990;
16:14:07:988;-0,0266;0,0504;-0,0417;56,35363146;37,51010517;3,60999990;
16:14:07:990;-0,0266;0,0504;-0,0417;56,35363146;37,51010517;3,60999990;
16:14:07:992;0,0324;0,0796;-0,0371;56,35363146;37,51010517;3,60999990;
16:14:08:048;0,0324;0,0796;-0,0371;56,35363146;37,51010517;3,60999990;
16:14:08:051;0,0324;0,0796;-0,0371;56,35363146;37,51010517;3,60999990;
16:14:08:053;-0,0147;0,0805;-0,0336;56,35363146;37,51010517;3,60999990;
16:14:08:108;-0,0147;0,0805;-0,0336;56,35363146;37,51010517;3,60999990;
16:14:08:110;-0,0147;0,0805;-0,0336;56,35363146;37,51010517;3,60999990;
16:14:08:112;-0,0150;0,1309;0,0345;56,35363146;37,51010517;3,60999990;
16:14:08:169;-0,0150;0,1309;0,0345;56,35363146;37,51010517;3,60999990;
16:14:08:172;-0,0150;0,1309;0,0345;56,35363146;37,51010517;3,60999990;
16:14:08:174;0,0039;0,1730;0,0354;56,35363146;37,51010517;3,60999990;
16:14:08:219;0,0039;0,1730;0,0354;56,35363146;37,51010517;3,60999990;
16:14:08:221;0,0039;0,1730;0,0354;56,35363069;37,51017331;3,72000003;
16:14:08:223;-0,0124;0,1837;-0,0254;56,35363069;37,51017331;3,72000003;
16:14:08:279;-0,0124;0,1837;-0,0254;56,35363069;37,51017331;3,72000003;
16:14:08:281;-0,0124;0,1837;-0,0254;56,35363069;37,51017331;3,72000003;
16:14:08:283;-0,0877;0,1935;-0,0351;56,35363069;37,51017331;3,72000003;
16:14:08:340;-0,0877;0,1935;-0,0351;56,35363069;37,51017331;3,72000003;
16:14:08:343;-0,0877;0,1935;-0,0351;56,35363069;37,51017331;3,72000003;
16:14:08:345;-0,0249;0,1839;0,0407;56,35363069;37,51017331;3,72000003;
16:14:08:400;-0,0249;0,1839;0,0407;56,35363069;37,51017331;3,72000003;
16:14:08:403;-0,0249;0,1839;0,0407;56,35363069;37,51017331;3,72000003;
16:14:08:405;-0,0212;0,1698;0,0346;56,35363069;37,51017331;3,72000003;
16:14:08:452;-0,0212;0,1698;0,0346;56,35363069;37,51017331;3,72000003;
16:14:08:454;-0,0212;0,1698;0,0346;56,35363069;37,51017331;3,72000003;
16:14:08:455;0,0187;0,1582;-0,0086;56,35363069;37,51017331;3,72000003;
16:14:08:512;0,0187;0,1582;-0,0086;56,35363069;37,51017331;3,72000003;
16:14:08:514;0,0187;0,1582;-0,0086;56,35363069;37,51017331;3,72000003;
16:14:08:516;0,0521;0,1401;-0,0453;56,35363069;37,51017331;3,72000003;
16:14:08:572;0,0521;0,1401;-0,0453;56,35363069;37,51017331;3,72000003;
16:14:08:574;0,0521;0,1401;-0,0453;56,35363069;37,51017331;3,72000003;
16:14:08:576;-0,0040;0,0881;-0,0162;56,35363069;37,51017331;3,72000003;
16:14:08:633;-0,0040;0,0881;-0,0162;56,35363069;37,51017331;3,72000003;
16:14:08:636;-0,0040;0,0881;-0,0162;56,35363069;37,51017331;3,72000003;
16:14:08:638;-0,0250;0,0515;-0,0045;56,35363069;37,51017331;3,72000003;
16:14:08:692;-0,0250;0,0515;-0,0045;56,35363069;37,51017331;3,72000003;
16:14:08:695;-0,0250;0,0515;-0,0045;56,35363069;37,51017331;3,72000003;
16:14:08:696;-0,0335;-0,0039;0,0192;56,35363069;37,51017331;3,72000003;
16:14:08:782;-0,0335;-0,0039;0,0192;56,35363069;37,51017331;3,72000003;
16:14:08:786;-0,0335;-0,0039;0,0192;56,35363069;37,51017331;3,72000003;
16:14:08:787;0,0114;-0,0223;0,0044;56,35363069;37,51017331;3,72000003;
16:14:08:843;0,0114;-0,0223;0,0044;56,35363069;37,51017331;3,72000003;
16:14:08:845;0,0114;-0,0223;0,0044;56,35363069;37,51017331;3,72000003;
16:14:08:849;0,0483;-0,1490;-0,0326;56,35363069;37,51017331;3,72000003;
16:14:08:902;0,0483;-0,1490;-0,0326;56,35363069;37,51017331;3,72000003;
16:14:08:905;0,0483;-0,1490;-0,0326;56,35363069;37,51017331;3,72000003;
16:14:08:907;-0,0555;-0,1692;0,0814;56,35363069;37,51017331;3,72000003;
16:14:08:963;-0,0555;-0,1692;0,0814;56,35363069;37,51017331;3,72000003;
16:14:08:966;-0,0555;-0,1692;0,0814;56,35363069;37,51017331;3,72000003;
16:14:08:968;-0,0431;-0,2121;-0,0558;56,35363069;37,51017331;3,72000003;
16:14:09:034;-0,0431;-0,2121;-0,0558;56,35363069;37,51017331;3,72000003;
16:14:09:036;-0,0431;-0,2121;-0,0558;56,35363069;37,51017331;3,72000003;
16:14:09:039;0,0654;-0,2115;0,0079;56,35363069;37,51017331;3,72000003;
16:14:09:094;0,0654;-0,2115;0,0079;56,35363069;37,51017331;3,72000003;
16:14:09:097;0,0654;-0,2115;0,0079;56,35363069;37,51017331;3,72000003;
16:14:09:099;0,1275;-0,2124;0,0323;56,35363069;37,51017331;3,72000003;
16:14:09:155;0,1275;-0,2124;0,0323;56,35363069;37,51017331;3,72000003;
16:14:09:157;0,1275;-0,2124;0,0323;56,35363069;37,51017331;3,72000003;
16:14:09:160;0,1171;-0,2413;0,0389;56,35363069;37,51017331;3,72000003;
16:14:09:213;0,1171;-0,2413;0,0389;56,35363069;37,51017331;3,72000003;
16:14:09:215;0,1171;-0,2413;0,0389;56,35361936;37,51023920;3,94000006;
16:14:09:217;-0,0035;-0,2070;-0,0128;56,35361936;37,51023920;3,94000006;
16:14:09:236;-0,0035;-0,2070;-0,0128;56,35361936;37,51023920;3,94000006;
16:14:09:238;-0,0035;-0,2070;-0,0128;56,35361936;37,51023920;3,94000006;
16:14:09:240;-0,0415;-0,2136;0,0439;56,35361936;37,51023920;3,94000006;
16:14:09:295;-0,0415;-0,2136;0,0439;56,35361936;37,51023920;3,94000006;
16:14:09:298;-0,0415;-0,2136;0,0439;56,35361936;37,51023920;3,94000006;
16:14:09:300;0,0297;-0,2016;0,1129;56,35361936;37,51023920;3,94000006;
16:14:09:355;0,0297;-0,2016;0,1129;56,35361936;37,51023920;3,94000006;
16:14:09:358;0,0297;-0,2016;0,1129;56,35361936;37,51023920;3,94000006;
16:14:09:360;0,0207;-0,1569;0,0233;56,35361936;37,51023920;3,94000006;
16:14:09:416;0,0207;-0,1569;0,0233;56,35361936;37,51023920;3,94000006;
16:14:09:420;0,0207;-0,1569;0,0233;56,35361936;37,51023920;3,94000006;
16:14:09:422;0,0448;-0,1419;-0,0750;56,35361936;37,51023920;3,94000006;
16:14:09:476;0,0448;-0,1419;-0,0750;56,35361936;37,51023920;3,94000006;
16:14:09:479;0,0448;-0,1419;-0,0750;56,35361936;37,51023920;3,94000006;
16:14:09:481;0,0567;-0,1310;-0,0967;56,35361936;37,51023920;3,94000006;
16:14:09:556;0,0567;-0,1310;-0,0967;56,35361936;37,51023920;3,94000006;
16:14:09:559;0,0567;-0,1310;-0,0967;56,35361936;37,51023920;3,94000006;
16:14:09:562;-0,0226;-0,1022;0,0245;56,35361936;37,51023920;3,94000006;
16:14:09:616;-0,0226;-0,1022;0,0245;56,35361936;37,51023920;3,94000006;
16:14:09:619;-0,0226;-0,1022;0,0245;56,35361936;37,51023920;3,94000006;
16:14:09:621;-0,0247;-0,1299;0,0346;56,35361936;37,51023920;3,94000006;
16:14:09:678;-0,0247;-0,1299;0,0346;56,35361936;37,51023920;3,94000006;
16:14:09:681;-0,0247;-0,1299;0,0346;56,35361936;37,51023920;3,94000006;
16:14:09:683;0,0050;-0,1019;0,0567;56,35361936;37,51023920;3,94000006;
16:14:09:737;0,0050;-0,1019;0,0567;56,35361936;37,51023920;3,94000006;
16:14:09:741;0,0050;-0,1019;0,0567;56,35361936;37,51023920;3,94000006;
16:14:09:744;0,0814;-0,0855;0,0090;56,35361936;37,51023920;3,94000006;
16:14:09:817;0,0814;-0,0855;0,0090;56,35361936;37,51023920;3,94000006;
16:14:09:820;0,0814;-0,0855;0,0090;56,35361936;37,51023920;3,94000006;
16:14:09:822;0,0249;-0,0545;-0,0388;56,35361936;37,51023920;3,94000006;
16:14:09:878;0,0249;-0,0545;-0,0388;56,35361936;37,51023920;3,94000006;
16:14:09:881;0,0249;-0,0545;-0,0388;56,35361936;37,51023920;3,94000006;
16:14:09:883;-0,0816;-0,0964;-0,0452;56,35361936;37,51023920;3,94000006;
16:14:09:939;-0,0816;-0,0964;-0,0452;56,35361936;37,51023920;3,94000006;
16:14:09:942;-0,0816;-0,0964;-0,0452;56,35361936;37,51023920;3,94000006;
16:14:09:944;-0,0136;-0,0689;0,0776;56,35361936;37,51023920;3,94000006;
16:14:09:998;-0,0136;-0,0689;0,0776;56,35361936;37,51023920;3,94000006;
16:14:10:002;-0,0136;-0,0689;0,0776;56,35361936;37,51023920;3,94000006;
16:14:10:004;0,0875;-0,0610;0,0495;56,35361936;37,51023920;3,94000006;
16:14:10:024;0,0875;-0,0610;0,0495;56,35361936;37,51023920;3,94000006;
16:14:10:027;0,0875;-0,0610;0,0495;56,35361936;37,51023920;3,94000006;
16:14:10:029;0,0569;-0,0537;-0,0518;56,35361936;37,51023920;3,94000006;
16:14:10:079;0,0569;-0,0537;-0,0518;56,35361936;37,51023920;3,94000006;
16:14:10:081;0,0569;-0,0537;-0,0518;56,35361936;37,51023920;3,94000006;
16:14:10:085;0,0128;-0,0255;-0,1119;56,35361936;37,51023920;3,94000006;
16:14:10:140;0,0128;-0,0255;-0,1119;56,35361936;37,51023920;3,94000006;
16:14:10:143;0,0128;-0,0255;-0,1119;56,35361936;37,51023920;3,94000006;
16:14:10:145;-0,0421;-0,0401;-0,0216;56,35361936;37,51023920;3,94000006;
16:14:10:198;-0,0421;-0,0401;-0,0216;56,35361936;37,51023920;3,94000006;
16:14:10:201;-0,0421;-0,0401;-0,0216;56,35360918;37,51030802;3,94000006;
16:14:10:203;0,0025;-0,0162;0,0644;56,35360918;37,51030802;3,94000006;
16:14:10:260;0,0025;-0,0162;0,0644;56,35360918;37,51030802;3,94000006;
16:14:10:262;0,0025;-0,0162;0,0644;56,35360918;37,51030802;3,94000006;
16:14:10:263;-0,0329;-0,0160;0,0845;56,35360918;37,51030802;3,94000006;
16:14:10:341;-0,0329;-0,0160;0,0845;56,35360918;37,51030802;3,94000006;
16:14:10:344;-0,0329;-0,0160;0,0845;56,35360918;37,51030802;3,94000006;
16:14:10:346;-0,0406;-0,0413;0,0761;56,35360918;37,51030802;3,94000006;
16:14:10:401;-0,0406;-0,0413;0,0761;56,35360918;37,51030802;3,94000006;
16:14:10:404;-0,0406;-0,0413;0,0761;56,35360918;37,51030802;3,94000006;
16:14:10:406;-0,0031;-0,0062;0,0353;56,35360918;37,51030802;3,94000006;
16:14:10:462;-0,0031;-0,0062;0,0353;56,35360918;37,51030802;3,94000006;
16:14:10:465;0,0614;0,0012;-0,1165;56,35360918;37,51030802;3,94000006;
16:14:10:468;0,0614;0,0012;-0,1165;56,35360918;37,51030802;3,94000006;
16:14:10:522;0,0614;0,0012;-0,1165;56,35360918;37,51030802;3,94000006;
16:14:10:526;0,0614;0,0012;-0,1165;56,35360918;37,51030802;3,94000006;
16:14:10:528;0,0114;0,0539;-0,0751;56,35360918;37,51030802;3,94000006;
16:14:10:602;0,0114;0,0539;-0,0751;56,35360918;37,51030802;3,94000006;
16:14:10:605;0,0114;0,0539;-0,0751;56,35360918;37,51030802;3,94000006;
16:14:10:607;-0,0222;0,0312;0,0279;56,35360918;37,51030802;3,94000006;
16:14:10:662;-0,0222;0,0312;0,0279;56,35360918;37,51030802;3,94000006;
16:14:10:664;-0,0222;0,0312;0,0279;56,35360918;37,51030802;3,94000006;
16:14:10:666;-0,0589;0,0382;0,0269;56,35360918;37,51030802;3,94000006;
16:14:10:723;-0,0589;0,0382;0,0269;56,35360918;37,51030802;3,94000006;
16:14:10:725;-0,0589;0,0382;0,0269;56,35360918;37,51030802;3,94000006;
16:14:10:729;-0,0051;0,0545;0,0629;56,35360918;37,51030802;3,94000006;
16:14:10:772;-0,0051;0,0545;0,0629;56,35360918;37,51030802;3,94000006;
16:14:10:775;-0,0051;0,0545;0,0629;56,35360918;37,51030802;3,94000006;
16:14:10:778;0,0490;0,0512;-0,0238;56,35360918;37,51030802;3,94000006;
16:14:10:805;0,0490;0,0512;-0,0238;56,35360918;37,51030802;3,94000006;
16:14:10:808;0,0490;0,0512;-0,0238;56,35360918;37,51030802;3,94000006;
16:14:10:810;0,0407;0,0387;-0,0569;56,35360918;37,51030802;3,94000006;
16:14:10:863;0,0407;0,0387;-0,0569;56,35360918;37,51030802;3,94000006;
16:14:10:864;0,0407;0,0387;-0,0569;56,35360918;37,51030802;3,94000006;
16:14:10:865;-0,0505;0,0459;-0,0456;56,35360918;37,51030802;3,94000006;
16:14:10:923;-0,0505;0,0459;-0,0456;56,35360918;37,51030802;3,94000006;
16:14:10:925;-0,0505;0,0459;-0,0456;56,35360918;37,51030802;3,94000006;
16:14:10:926;-0,0150;0,0546;-0,0596;56,35360918;37,51030802;3,94000006;
16:14:10:984;-0,0150;0,0546;-0,0596;56,35360918;37,51030802;3,94000006;
16:14:10:986;-0,0150;0,0546;-0,0596;56,35360918;37,51030802;3,94000006;
16:14:10:989;-0,0280;0,0550;-0,0201;56,35360918;37,51030802;3,94000006;
16:14:11:045;-0,0280;0,0550;-0,0201;56,35360918;37,51030802;3,94000006;
16:14:11:047;-0,0280;0,0550;-0,0201;56,35360918;37,51030802;3,94000006;
16:14:11:050;-0,0042;0,0618;0,0963;56,35360918;37,51030802;3,94000006;
16:14:11:125;-0,0042;0,0618;0,0963;56,35360918;37,51030802;3,94000006;
16:14:11:127;-0,0042;0,0618;0,0963;56,35360918;37,51030802;3,94000006;
16:14:11:130;0,0144;0,0720;0,0967;56,35360918;37,51030802;3,94000006;
16:14:11:184;0,0144;0,0720;0,0967;56,35360918;37,51030802;3,94000006;
16:14:11:185;0,0055;0,0929;0,0193;56,35360918;37,51030802;3,94000006;
16:14:11:187;0,0055;0,0929;0,0193;56,35360918;37,51030802;3,94000006;
16:14:11:245;0,0055;0,0929;0,0193;56,35360918;37,51030802;3,94000006;
16:14:11:246;0,0055;0,0929;0,0193;56,35359834;37,51038164;4,38999987;
16:14:11:249;0,0254;0,0982;-0,1032;56,35359834;37,51038164;4,38999987;
16:14:11:282;0,0254;0,0982;-0,1032;56,35359834;37,51038164;4,38999987;
16:14:11:283;0,0207;0,0873;-0,0919;56,35359834;37,51038164;4,38999987;
16:14:11:329;0,0207;0,0873;-0,0919;56,35359834;37,51038164;4,38999987;
16:14:11:386;0,0207;0,0873;-0,0919;56,35359834;37,51038164;4,38999987;
16:14:11:389;0,0207;0,0873;-0,0919;56,35359834;37,51038164;4,38999987;
16:14:11:391;-0,0459;0,0233;0,0797;56,35359834;37,51038164;4,38999987;
16:14:11:447;-0,0459;0,0233;0,0797;56,35359834;37,51038164;4,38999987;
16:14:11:450;-0,0459;0,0233;0,0797;56,35359834;37,51038164;4,38999987;
16:14:11:452;0,0460;0,0030;0,0397;56,35359834;37,51038164;4,38999987;
16:14:11:506;0,0460;0,0030;0,0397;56,35359834;37,51038164;4,38999987;
16:14:11:509;0,0460;0,0030;0,0397;56,35359834;37,51038164;4,38999987;
16:14:11:512;0,0291;-0,0007;-0,1052;56,35359834;37,51038164;4,38999987;
16:14:11:567;0,0291;-0,0007;-0,1052;56,35359834;37,51038164;4,38999987;
16:14:11:570;0,0291;-0,0007;-0,1052;56,35359834;37,51038164;4,38999987;
16:14:11:572;-0,0242;-0,0371;-0,0953;56,35359834;37,51038164;4,38999987;
16:14:11:591;-0,0242;-0,0371;-0,0953;56,35359834;37,51038164;4,38999987;
16:14:11:594;-0,0242;-0,0371;-0,0953;56,35359834;37,51038164;4,38999987;
16:14:11:596;0,0049;-0,0321;0,0222;56,35359834;37,51038164;4,38999987;
16:14:11:648;0,0049;-0,0321;0,0222;56,35359834;37,51038164;4,38999987;
16:14:11:650;0,0049;-0,0321;0,0222;56,35359834;37,51038164;4,38999987;
16:14:11:652;-0,0333;-0,0567;0,1099;56,35359834;37,51038164;4,38999987;
16:14:11:708;-0,0333;-0,0567;0,1099;56,35359834;37,51038164;4,38999987;
16:14:11:711;-0,0333;-0,0567;0,1099;56,35359834;37,51038164;4,38999987;
16:14:11:713;0,0156;-0,0316;0,0556;56,35359834;37,51038164;4,38999987;
16:14:11:768;0,0156;-0,0316;0,0556;56,35359834;37,51038164;4,38999987;
16:14:11:771;0,0156;-0,0316;0,0556;56,35359834;37,51038164;4,38999987;
16:14:11:773;-0,0300;-0,0498;0,0074;56,35359834;37,51038164;4,38999987;
16:14:11:849;-0,0300;-0,0498;0,0074;56,35359834;37,51038164;4,38999987;
16:14:11:852;-0,0300;-0,0498;0,0074;56,35359834;37,51038164;4,38999987;
16:14:11:855;-0,0436;-0,0605;-0,0816;56,35359834;37,51038164;4,38999987;
16:14:11:910;-0,0436;-0,0605;-0,0816;56,35359834;37,51038164;4,38999987;
16:14:11:913;-0,0436;-0,0605;-0,0816;56,35359834;37,51038164;4,38999987;
16:14:11:915;0,0457;-0,0270;-0,0998;56,35359834;37,51038164;4,38999987;
16:14:11:970;0,0457;-0,0270;-0,0998;56,35359834;37,51038164;4,38999987;
16:14:11:972;0,0457;-0,0270;-0,0998;56,35359834;37,51038164;4,38999987;
16:14:11:974;0,0523;-0,0518;-0,0199;56,35359834;37,51038164;4,38999987;
16:14:12:030;0,0523;-0,0518;-0,0199;56,35359834;37,51038164;4,38999987;
16:14:12:033;0,0523;-0,0518;-0,0199;56,35359834;37,51038164;4,38999987;
16:14:12:035;0,0512;-0,0538;0,1729;56,35359834;37,51038164;4,38999987;
16:14:12:090;0,0512;-0,0538;0,1729;56,35359834;37,51038164;4,38999987;
16:14:12:093;0,0512;-0,0538;0,1729;56,35359834;37,51038164;4,38999987;
16:14:12:095;0,0315;-0,0420;0,0222;56,35359834;37,51038164;4,38999987;
16:14:12:171;0,0315;-0,0420;0,0222;56,35359834;37,51038164;4,38999987;
16:14:12:173;0,0002;-0,0470;-0,0544;56,35359834;37,51038164;4,38999987;
16:14:12:178;0,0002;-0,0470;-0,0544;56,35359834;37,51038164;4,38999987;
16:14:12:230;-0,0176;-0,0375;-0,0389;56,35359834;37,51038164;4,38999987;
16:14:12:233;-0,0176;-0,0375;-0,0389;56,35358649;37,51044396;3,86999989;
16:14:12:235;-0,0176;-0,0375;-0,0389;56,35358649;37,51044396;3,86999989;
16:14:12:290;-0,0176;-0,0375;-0,0389;56,35358649;37,51044396;3,86999989;
16:14:12:292;-0,0176;-0,0375;-0,0389;56,35358649;37,51044396;3,86999989;
16:14:12:294;-0,0191;-0,0359;0,0099;56,35358649;37,51044396;3,86999989;
16:14:12:306;-0,0191;-0,0359;0,0099;56,35358649;37,51044396;3,86999989;
16:14:12:309;-0,0174;-0,0311;0,0088;56,35358649;37,51044396;3,86999989;
16:14:12:361;-0,0687;-0,0354;0,1096;56,35358649;37,51044396;3,86999989;
16:14:12:364;-0,0687;-0,0354;0,1096;56,35358649;37,51044396;3,86999989;
16:14:12:365;-0,0687;-0,0354;0,1096;56,35358649;37,51044396;3,86999989;
16:14:12:422;-0,0687;-0,0354;0,1096;56,35358649;37,51044396;3,86999989;
16:14:12:424;-0,0687;-0,0354;0,1096;56,35358649;37,51044396;3,86999989;
16:14:12:427;-0,0464;-0,0243;-0,0310;56,35358649;37,51044396;3,86999989;
16:14:12:483;-0,0464;-0,0243;-0,0310;56,35358649;37,51044396;3,86999989;
16:14:12:485;-0,0464;-0,0243;-0,0310;56,35358649;37,51044396;3,86999989;
16:14:12:487;0,0288;0,0256;-0,1204;56,35358649;37,51044396;3,86999989;
16:14:12:542;0,0288;0,0256;-0,1204;56,35358649;37,51044396;3,86999989;
16:14:12:545;0,0288;0,0256;-0,1204;56,35358649;37,51044396;3,86999989;
16:14:12:547;-0,0112;-0,0429;-0,0815;56,35358649;37,51044396;3,86999989;
16:14:12:603;-0,0112;-0,0429;-0,0815;56,35358649;37,51044396;3,86999989;
16:14:12:605;-0,0112;-0,0429;-0,0815;56,35358649;37,51044396;3,86999989;
16:14:12:607;0,0218;-0,0102;0,0169;56,35358649;37,51044396;3,86999989;
16:14:12:624;0,0218;-0,0102;0,0169;56,35358649;37,51044396;3,86999989;
16:14:12:683;0,0218;-0,0102;0,0169;56,35358649;37,51044396;3,86999989;
16:14:12:686;0,0218;-0,0102;0,0169;56,35358649;37,51044396;3,86999989;
16:14:12:689;0,0009;-0,0244;0,1594;56,35358649;37,51044396;3,86999989;
16:14:12:744;0,0009;-0,0244;0,1594;56,35358649;37,51044396;3,86999989;
16:14:12:747;0,0009;-0,0244;0,1594;56,35358649;37,51044396;3,86999989;
16:14:12:752;0,0801;-0,0133;-0,0136;56,35358649;37,51044396;3,86999989;
16:14:12:804;0,0801;-0,0133;-0,0136;56,35358649;37,51044396;3,86999989;
16:14:12:806;0,0801;-0,0133;-0,0136;56,35358649;37,51044396;3,86999989;
16:14:12:808;0,0406;-0,0140;-0,0321;56,35358649;37,51044396;3,86999989;
16:14:12:873;0,0406;-0,0140;-0,0321;56,35358649;37,51044396;3,86999989;
16:14:12:875;0,0406;-0,0140;-0,0321;56,35358649;37,51044396;3,86999989;
16:14:12:876;0,0069;-0,0195;-0,0478;56,35358649;37,51044396;3,86999989;
16:14:12:934;0,0069;-0,0195;-0,0478;56,35358649;37,51044396;3,86999989;
16:14:12:937;0,0069;-0,0195;-0,0478;56,35358649;37,51044396;3,86999989;
16:14:12:940;0,0173;-0,0086;0,0976;56,35358649;37,51044396;3,86999989;
16:14:12:997;0,0173;-0,0086;0,0976;56,35358649;37,51044396;3,86999989;
16:14:13:001;0,0173;-0,0086;0,0976;56,35358649;37,51044396;3,86999989;
16:14:13:003;-0,0287;-0,0038;0,0373;56,35358649;37,51044396;3,86999989;
16:14:13:055;-0,0287;-0,0038;0,0373;56,35358649;37,51044396;3,86999989;
16:14:13:059;-0,0287;-0,0038;0,0373;56,35358649;37,51044396;3,86999989;
16:14:13:061;-0,0850;-0,0470;-0,0073;56,35358649;37,51044396;3,86999989;
16:14:13:116;-0,0850;-0,0470;-0,0073;56,35358649;37,51044396;3,86999989;
16:14:13:120;-0,0850;-0,0470;-0,0073;56,35358649;37,51044396;3,86999989;
16:14:13:121;-0,0260;0,0132;-0,0523;56,35358649;37,51044396;3,86999989;
16:14:13:195;-0,0260;0,0132;-0,0523;56,35358649;37,51044396;3,86999989;
16:14:13:197;-0,0260;0,0132;-0,0523;56,35357345;37,51051404;4,09999990;
16:14:13:199;0,0074;-0,0032;0,0264;56,35357345;37,51051404;4,09999990;
16:14:13:255;0,0074;-0,0032;0,0264;56,35357345;37,51051404;4,09999990;
16:14:13:257;0,0074;-0,0032;0,0264;56,35357345;37,51051404;4,09999990;
16:14:13:258;0,0414;0,0123;0,0774;56,35357345;37,51051404;4,09999990;
16:14:13:317;0,0414;0,0123;0,0774;56,35357345;37,51051404;4,09999990;
16:14:13:320;0,0414;0,0123;0,0774;56,35357345;37,51051404;4,09999990;
16:14:13:322;-0,0209;-0,0437;0,0494;56,35357345;37,51051404;4,09999990;
16:14:13:330;-0,0206;-0,0431;0,0438;56,35357345;37,51051404;4,09999990;
16:14:13:333;-0,0206;-0,0431;0,0438;56,35357345;37,51051404;4,09999990;
16:14:13:387;-0,0206;-0,0431;0,0438;56,35357345;37,51051404;4,09999990;
16:14:13:390;-0,0206;-0,0431;0,0438;56,35357345;37,51051404;4,09999990;
16:14:13:392;-0,0172;-0,0073;0,0547;56,35357345;37,51051404;4,09999990;
16:14:13:447;-0,0172;-0,0073;0,0547;56,35357345;37,51051404;4,09999990;
16:14:13:450;-0,0172;-0,0073;0,0547;56,35357345;37,51051404;4,09999990;
16:14:13:451;0,0434;0,0109;-0,1273;56,35357345;37,51051404;4,09999990;
16:14:13:508;0,0434;0,0109;-0,1273;56,35357345;37,51051404;4,09999990;
16:14:13:510;0,0434;0,0109;-0,1273;56,35357345;37,51051404;4,09999990;
16:14:13:513;0,0046;0,0051;-0,1229;56,35357345;37,51051404;4,09999990;
16:14:13:568;0,0046;0,0051;-0,1229;56,35357345;37,51051404;4,09999990;
16:14:13:571;0,0046;0,0051;-0,1229;56,35357345;37,51051404;4,09999990;
16:14:13:573;-0,0086;0,0021;0,0262;56,35357345;37,51051404;4,09999990;
16:14:13:629;-0,0086;0,0021;0,0262;56,35357345;37,51051404;4,09999990;
16:14:13:632;-0,0086;0,0021;0,0262;56,35357345;37,51051404;4,09999990;
16:14:13:633;0,0482;-0,0304;0,1490;56,35357345;37,51051404;4,09999990;
16:14:13:652;0,0482;-0,0304;0,1490;56,35357345;37,51051404;4,09999990;
16:14:13:709;0,0482;-0,0304;0,1490;56,35357345;37,51051404;4,09999990;
16:14:13:711;0,0482;-0,0304;0,1490;56,35357345;37,51051404;4,09999990;
16:14:13:717;-0,0232;-0,0212;0,1173;56,35357345;37,51051404;4,09999990;
16:14:13:769;-0,0232;-0,0212;0,1173;56,35357345;37,51051404;4,09999990;
16:14:13:772;-0,0232;-0,0212;0,1173;56,35357345;37,51051404;4,09999990;
16:14:13:774;0,0204;-0,0123;-0,0854;56,35357345;37,51051404;4,09999990;
16:14:13:829;0,0204;-0,0123;-0,0854;56,35357345;37,51051404;4,09999990;
16:14:13:832;0,0204;-0,0123;-0,0854;56,35357345;37,51051404;4,09999990;
16:14:13:834;-0,0320;-0,0398;-0,0916;56,35357345;37,51051404;4,09999990;
16:14:13:900;-0,0320;-0,0398;-0,0916;56,35357345;37,51051404;4,09999990;
16:14:13:902;-0,0320;-0,0398;-0,0916;56,35357345;37,51051404;4,09999990;
16:14:13:904;-0,0254;-0,0073;-0,0712;56,35357345;37,51051404;4,09999990;
16:14:13:960;-0,0254;-0,0073;-0,0712;56,35357345;37,51051404;4,09999990;
16:14:13:963;-0,0254;-0,0073;-0,0712;56,35357345;37,51051404;4,09999990;
16:14:13:965;0,0686;0,0213;-0,0529;56,35357345;37,51051404;4,09999990;
16:14:14:020;0,0686;0,0213;-0,0529;56,35357345;37,51051404;4,09999990;
16:14:14:023;0,0686;0,0213;-0,0529;56,35357345;37,51051404;4,09999990;
16:14:14:026;0,0328;-0,0223;-0,0420;56,35357345;37,51051404;4,09999990;
16:14:14:081;0,0328;-0,0223;-0,0420;56,35357345;37,51051404;4,09999990;
16:14:14:084;0,0328;-0,0223;-0,0420;56,35357345;37,51051404;4,09999990;
16:14:14:086;-0,0537;-0,0155;0,0810;56,35357345;37,51051404;4,09999990;
16:14:14:142;-0,0537;-0,0155;0,0810;56,35357345;37,51051404;4,09999990;
16:14:14:144;-0,0537;-0,0155;0,0810;56,35357345;37,51051404;4,09999990;
16:14:14:146;-0,0529;0,0173;0,0485;56,35357345;37,51051404;4,09999990;
16:14:14:221;-0,0529;0,0173;0,0485;56,35357345;37,51051404;4,09999990;
16:14:14:224;-0,0529;0,0173;0,0485;56,35356526;37,51057626;3,63000011;
16:14:14:226;-0,0520;-0,0351;-0,0230;56,35356526;37,51057626;3,63000011;
16:14:14:282;-0,0520;-0,0351;-0,0230;56,35356526;37,51057626;3,63000011;
16:14:14:285;-0,0520;-0,0351;-0,0230;56,35356526;37,51057626;3,63000011;
16:14:14:287;0,0397;0,0118;0,0529;56,35356526;37,51057626;3,63000011;
16:14:14:343;0,0397;0,0118;0,0529;56,35356526;37,51057626;3,63000011;
16:14:14:345;0,0397;0,0118;0,0529;56,35356526;37,51057626;3,63000011;
16:14:14:347;0,0447;-0,0128;0,0019;56,35356526;37,51057626;3,63000011;
16:14:14:403;0,0447;-0,0128;0,0019;56,35356526;37,51057626;3,63000011;
16:14:14:405;0,0447;-0,0128;0,0019;56,35356526;37,51057626;3,63000011;
16:14:14:407;0,0108;-0,0268;0,0093;56,35356526;37,51057626;3,63000011;
16:14:14:425;0,0108;-0,0268;0,0093;56,35356526;37,51057626;3,63000011;
16:14:14:428;0,0108;-0,0268;0,0093;56,35356526;37,51057626;3,63000011;
16:14:14:431;-0,0033;0,0051;0,0184;56,35356526;37,51057626;3,63000011;
16:14:14:483;-0,0033;0,0051;0,0184;56,35356526;37,51057626;3,63000011;
16:14:14:486;-0,0033;0,0051;0,0184;56,35356526;37,51057626;3,63000011;
16:14:14:488;-0,0486;0,0138;-0,0555;56,35356526;37,51057626;3,63000011;
16:14:14:543;-0,0486;0,0138;-0,0555;56,35356526;37,51057626;3,63000011;
16:14:14:547;-0,0486;0,0138;-0,0555;56,35356526;37,51057626;3,63000011;
16:14:14:549;-0,0351;-0,0294;-0,0208;56,35356526;37,51057626;3,63000011;
16:14:14:604;-0,0351;-0,0294;-0,0208;56,35356526;37,51057626;3,63000011;
16:14:14:607;-0,0351;-0,0294;-0,0208;56,35356526;37,51057626;3,63000011;
16:14:14:610;-0,0158;-0,0034;-0,0427;56,35356526;37,51057626;3,63000011;
16:14:14:664;-0,0158;-0,0034;-0,0427;56,35356526;37,51057626;3,63000011;
16:14:14:666;-0,0158;-0,0034;-0,0427;56,35356526;37,51057626;3,63000011;
16:14:14:669;-0,0314;0,0123;-0,0160;56,35356526;37,51057626;3,63000011;
16:14:14:744;-0,0314;0,0123;-0,0160;56,35356526;37,51057626;3,63000011;
16:14:14:746;-0,0314;0,0123;-0,0160;56,35356526;37,51057626;3,63000011;
16:14:14:748;-0,0217;-0,0190;0,1375;56,35356526;37,51057626;3,63000011;
16:14:14:805;-0,0217;-0,0190;0,1375;56,35356526;37,51057626;3,63000011;
16:14:14:809;-0,0217;-0,0190;0,1375;56,35356526;37,51057626;3,63000011;
16:14:14:811;0,0394;-0,0214;0,0405;56,35356526;37,51057626;3,63000011;
16:14:14:855;0,0394;-0,0214;0,0405;56,35356526;37,51057626;3,63000011;
16:14:14:857;0,0394;-0,0214;0,0405;56,35356526;37,51057626;3,63000011;
16:14:14:859;0,0330;-0,0183;-0,0520;56,35356526;37,51057626;3,63000011;
16:14:14:916;0,0330;-0,0183;-0,0520;56,35356526;37,51057626;3,63000011;
16:14:14:919;0,0330;-0,0183;-0,0520;56,35356526;37,51057626;3,63000011;
16:14:14:921;0,0503;-0,0011;-0,0361;56,35356526;37,51057626;3,63000011;
16:14:15:006;0,0503;-0,0011;-0,0361;56,35356526;37,51057626;3,63000011;
16:14:15:009;0,0503;-0,0011;-0,0361;56,35356526;37,51057626;3,63000011;
16:14:15:012;0,0031;-0,0136;0,0309;56,35356526;37,51057626;3,63000011;
16:14:15:066;0,0031;-0,0136;0,0309;56,35356526;37,51057626;3,63000011;
16:14:15:069;0,0389;0,0200;-0,0050;56,35356526;37,51057626;3,63000011;
16:14:15:071;0,0389;0,0200;-0,0050;56,35356526;37,51057626;3,63000011;
16:14:15:126;0,0389;0,0200;-0,0050;56,35356526;37,51057626;3,63000011;
16:14:15:130;0,0389;0,0200;-0,0050;56,35356526;37,51057626;3,63000011;
16:14:15:132;0,0146;0,0073;-0,0474;56,35356526;37,51057626;3,63000011;
16:14:15:185;0,0146;0,0073;-0,0474;56,35356526;37,51057626;3,63000011;
16:14:15:187;0,0146;0,0073;-0,0474;56,35355839;37,51063859;3,85999990;
16:14:15:189;-0,0036;-0,0181;-0,0683;56,35355839;37,51063859;3,85999990;
16:14:15:208;-0,0036;-0,0181;-0,0683;56,35355839;37,51063859;3,85999990;
16:14:15:211;-0,0036;-0,0181;-0,0683;56,35355839;37,51063859;3,85999990;
16:14:15:212;0,0206;-0,0072;0,0643;56,35355839;37,51063859;3,85999990;
16:14:15:266;0,0206;-0,0072;0,0643;56,35355839;37,51063859;3,85999990;
16:14:15:269;0,0206;-0,0072;0,0643;56,35355839;37,51063859;3,85999990;
16:14:15:271;0,0292;0,0331;0,0851;56,35355839;37,51063859;3,85999990;
16:14:15:326;0,0292;0,0331;0,0851;56,35355839;37,51063859;3,85999990;
16:14:15:328;0,0292;0,0331;0,0851;56,35355839;37,51063859;3,85999990;
16:14:15:329;-0,1236;-0,0352;-0,0437;56,35355839;37,51063859;3,85999990;
16:14:15:430;-0,0684;-0,0158;0,0341;56,35355839;37,51063859;3,85999990;
16:14:15:433;-0,0684;-0,0158;0,0341;56,35355839;37,51063859;3,85999990;
16:14:15:435;-0,0684;-0,0158;0,0341;56,35355839;37,51063859;3,85999990;
16:14:15:472;-0,0684;-0,0158;0,0341;56,35355839;37,51063859;3,85999990;
16:14:15:475;-0,0684;-0,0158;0,0341;56,35355839;37,51063859;3,85999990;
16:14:15:477;0,1099;0,0091;-0,0012;56,35355839;37,51063859;3,85999990;
16:14:15:529;0,1099;0,0091;-0,0012;56,35355839;37,51063859;3,85999990;
16:14:15:532;0,1099;0,0091;-0,0012;56,35355839;37,51063859;3,85999990;
16:14:15:533;0,0542;-0,0018;0,0159;56,35355839;37,51063859;3,85999990;
16:14:15:589;0,0542;-0,0018;0,0159;56,35355839;37,51063859;3,85999990;
16:14:15:592;0,0542;-0,0018;0,0159;56,35355839;37,51063859;3,85999990;
16:14:15:595;0,0223;0,0100;-0,0410;56,35355839;37,51063859;3,85999990;
16:14:15:649;0,0223;0,0100;-0,0410;56,35355839;37,51063859;3,85999990;
16:14:15:652;0,0223;0,0100;-0,0410;56,35355839;37,51063859;3,85999990;
16:14:15:653;-0,0653;0,0080;-0,0042;56,35355839;37,51063859;3,85999990;
16:14:15:709;-0,0653;0,0080;-0,0042;56,35355839;37,51063859;3,85999990;
16:14:15:712;-0,0653;0,0080;-0,0042;56,35355839;37,51063859;3,85999990;
16:14:15:714;-0,0410;-0,0139;0,0338;56,35355839;37,51063859;3,85999990;
16:14:15:790;-0,0410;-0,0139;0,0338;56,35355839;37,51063859;3,85999990;
16:14:15:793;-0,0410;-0,0139;0,0338;56,35355839;37,51063859;3,85999990;
16:14:15:795;0,0522;-0,0303;-0,0125;56,35355839;37,51063859;3,85999990;
16:14:15:850;0,0522;-0,0303;-0,0125;56,35355839;37,51063859;3,85999990;
16:14:15:853;0,0522;-0,0303;-0,0125;56,35355839;37,51063859;3,85999990;
16:14:15:855;-0,0207;-0,0058;-0,0085;56,35355839;37,51063859;3,85999990;
16:14:15:879;-0,0207;-0,0058;-0,0085;56,35355839;37,51063859;3,85999990;
16:14:15:884;0,0460;-0,0732;-0,0887;56,35355839;37,51063859;3,85999990;
16:14:15:887;0,0460;-0,0732;-0,0887;56,35355839;37,51063859;3,85999990;
16:14:15:930;0,0460;-0,0732;-0,0887;56,35355839;37,51063859;3,85999990;
16:14:15:932;0,0460;-0,0732;-0,0887;56,35355839;37,51063859;3,85999990;
16:14:15:934;0,0820;-0,0756;0,0278;56,35355839;37,51063859;3,85999990;
16:14:15:990;0,0820;-0,0756;0,0278;56,35355839;37,51063859;3,85999990;
16:14:15:993;0,0820;-0,0756;0,0278;56,35355839;37,51063859;3,85999990;
16:14:15:995;0,0349;-0,0816;0,0770;56,35355839;37,51063859;3,85999990;
16:14:16:051;0,0349;-0,0816;0,0770;56,35355839;37,51063859;3,85999990;
16:14:16:054;0,0349;-0,0816;0,0770;56,35355839;37,51063859;3,85999990;
16:14:16:056;-0,0808;-0,1417;-0,0494;56,35355839;37,51063859;3,85999990;
16:14:16:112;-0,0808;-0,1417;-0,0494;56,35355839;37,51063859;3,85999990;
16:14:16:114;-0,0808;-0,1417;-0,0494;56,35355839;37,51063859;3,85999990;
16:14:16:116;0,0138;-0,1290;-0,0817;56,35355839;37,51063859;3,85999990;
16:14:16:173;0,0138;-0,1290;-0,0817;56,35355839;37,51063859;3,85999990;
16:14:16:175;0,0138;-0,1290;-0,0817;56,35355839;37,51063859;3,85999990;
16:14:16:179;0,0543;-0,1552;-0,0275;56,35355839;37,51063859;3,85999990;
16:14:16:231;0,0543;-0,1552;-0,0275;56,35355839;37,51063859;3,85999990;
16:14:16:233;0,0543;-0,1552;-0,0275;56,35354709;37,51069801;3,68000007;
16:14:16:234;0,0040;-0,1723;-0,0040;56,35354709;37,51069801;3,68000007;
16:14:16:312;0,0040;-0,1723;-0,0040;56,35354709;37,51069801;3,68000007;
16:14:16:314;0,0040;-0,1723;-0,0040;56,35354709;37,51069801;3,68000007;
16:14:16:315;0,0210;-0,2050;0,0088;56,35354709;37,51069801;3,68000007;
16:14:16:373;0,0210;-0,2050;0,0088;56,35354709;37,51069801;3,68000007;
16:14:16:376;0,0210;-0,2050;0,0088;56,35354709;37,51069801;3,68000007;
16:14:16:378;0,0823;-0,2189;0,1003;56,35354709;37,51069801;3,68000007;
16:14:16:444;0,0823;-0,2189;0,1003;56,35354709;37,51069801;3,68000007;
16:14:16:447;0,0823;-0,2189;0,1003;56,35354709;37,51069801;3,68000007;
16:14:16:449;0,1041;-0,2289;-0,0281;56,35354709;37,51069801;3,68000007;
16:14:16:504;0,1041;-0,2289;-0,0281;56,35354709;37,51069801;3,68000007;
16:14:16:507;0,1041;-0,2289;-0,0281;56,35354709;37,51069801;3,68000007;
16:14:16:509;-0,0371;-0,3013;-0,0140;56,35354709;37,51069801;3,68000007;
16:14:16:563;-0,0371;-0,3013;-0,0140;56,35354709;37,51069801;3,68000007;
16:14:16:565;-0,0371;-0,3013;-0,0140;56,35354709;37,51069801;3,68000007;
16:14:16:566;-0,0184;-0,2721;0,1053;56,35354709;37,51069801;3,68000007;
16:14:16:623;-0,0184;-0,2721;0,1053;56,35354709;37,51069801;3,68000007;
16:14:16:625;-0,0184;-0,2721;0,1053;56,35354709;37,51069801;3,68000007;
16:14:16:627;0,0215;-0,2658;0,0091;56,35354709;37,51069801;3,68000007;
16:14:16:683;0,0215;-0,2658;0,0091;56,35354709;37,51069801;3,68000007;
16:14:16:685;0,0215;-0,2658;0,0091;56,35354709;37,51069801;3,68000007;
16:14:16:686;0,0923;-0,2827;0,0166;56,35354709;37,51069801;3,68000007;
16:14:16:743;0,0923;-0,2827;0,0166;56,35354709;37,51069801;3,68000007;
16:14:16:745;0,0923;-0,2827;0,0166;56,35354709;37,51069801;3,68000007;
16:14:16:747;0,0698;-0,3004;-0,0436;56,35354709;37,51069801;3,68000007;
16:14:16:765;0,0698;-0,3004;-0,0436;56,35354709;37,51069801;3,68000007;
16:14:16:768;0,0612;-0,2619;-0,0386;56,35354709;37,51069801;3,68000007;
16:14:16:824;0,0612;-0,2619;-0,0386;56,35354709;37,51069801;3,68000007;
16:14:16:826;0,0612;-0,2619;-0,0386;56,35354709;37,51069801;3,68000007;
16:14:16:827;0,0373;-0,2947;-0,0666;56,35354709;37,51069801;3,68000007;
16:14:16:884;0,0373;-0,2947;-0,0666;56,35354709;37,51069801;3,68000007;
16:14:16:887;0,0373;-0,2947;-0,0666;56,35354709;37,51069801;3,68000007;
16:14:16:889;0,0262;-0,3134;0,0199;56,35354709;37,51069801;3,68000007;
16:14:16:907;0,0262;-0,3134;0,0199;56,35354709;37,51069801;3,68000007;
16:14:16:955;0,0262;-0,3134;0,0199;56,35354709;37,51069801;3,68000007;
16:14:16:956;0,0262;-0,3134;0,0199;56,35354709;37,51069801;3,68000007;
16:14:16:959;-0,1064;-0,3990;0,0513;56,35354709;37,51069801;3,68000007;
16:14:17:017;-0,1064;-0,3990;0,0513;56,35354709;37,51069801;3,68000007;
16:14:17:018;-0,1064;-0,3990;0,0513;56,35354709;37,51069801;3,68000007;
16:14:17:021;0,0124;-0,3983;0,1975;56,35354709;37,51069801;3,68000007;
16:14:17:076;0,0124;-0,3983;0,1975;56,35354709;37,51069801;3,68000007;
16:14:17:079;0,0124;-0,3983;0,1975;56,35354709;37,51069801;3,68000007;
16:14:17:081;0,1150;-0,4626;0,1432;56,35354709;37,51069801;3,68000007;
16:14:17:136;0,1150;-0,4626;0,1432;56,35354709;37,51069801;3,68000007;
16:14:17:139;0,1150;-0,4626;0,1432;56,35354709;37,51069801;3,68000007;
16:14:17:141;0,1977;-0,4563;0,0649;56,35354709;37,51069801;3,68000007;
16:14:17:195;0,1977;-0,4563;0,0649;56,35354709;37,51069801;3,68000007;
16:14:17:199;0,1977;-0,4563;0,0649;56,35354709;37,51069801;3,68000007;
16:14:17:200;0,2019;-0,4418;0,0403;56,35354709;37,51069801;3,68000007;
16:14:17:258;0,2019;-0,4418;0,0403;56,35354709;37,51069801;3,68000007;
16:14:17:261;0,2019;-0,4418;0,0403;56,35353686;37,51074734;3,18000007;
16:14:17:264;0,0453;-0,3899;-0,0869;56,35353686;37,51074734;3,18000007;
16:14:17:337;0,0453;-0,3899;-0,0869;56,35353686;37,51074734;3,18000007;
16:14:17:340;0,0453;-0,3899;-0,0869;56,35353686;37,51074734;3,18000007;
16:14:17:342;-0,0222;-0,3884;-0,0882;56,35353686;37,51074734;3,18000007;
16:14:17:398;-0,0222;-0,3884;-0,0882;56,35353686;37,51074734;3,18000007;
16:14:17:402;-0,0222;-0,3884;-0,0882;56,35353686;37,51074734;3,18000007;
16:14:17:404;-0,0528;-0,4465;0,0125;56,35353686;37,51074734;3,18000007;
16:14:17:469;-0,0528;-0,4465;0,0125;56,35353686;37,51074734;3,18000007;
16:14:17:471;-0,0016;-0,4454;0,1883;56,35353686;37,51074734;3,18000007;
16:14:17:474;-0,0016;-0,4454;0,1883;56,35353686;37,51074734;3,18000007;
16:14:17:529;-0,0016;-0,4454;0,1883;56,35353686;37,51074734;3,18000007;
16:14:17:532;-0,0016;-0,4454;0,1883;56,35353686;37,51074734;3,18000007;
16:14:17:535;0,1414;-0,5458;0,1407;56,35353686;37,51074734;3,18000007;
16:14:17:589;0,1414;-0,5458;0,1407;56,35353686;37,51074734;3,18000007;
16:14:17:592;0,1414;-0,5458;0,1407;56,35353686;37,51074734;3,18000007;
16:14:17:594;0,2143;-0,5970;0,0689;56,35353686;37,51074734;3,18000007;
16:14:17:650;0,1190;-0,6699;0,0152;56,35353686;37,51074734;3,18000007;
16:14:17:653;0,1190;-0,6699;0,0152;56,35353686;37,51074734;3,18000007;
16:14:17:655;0,1190;-0,6699;0,0152;56,35353686;37,51074734;3,18000007;
16:14:17:709;0,1190;-0,6699;0,0152;56,35353686;37,51074734;3,18000007;
16:14:17:711;0,1190;-0,6699;0,0152;56,35353686;37,51074734;3,18000007;
16:14:17:714;0,0996;-0,7274;-0,0340;56,35353686;37,51074734;3,18000007;
16:14:17:770;0,0996;-0,7274;-0,0340;56,35353686;37,51074734;3,18000007;
16:14:17:773;0,0996;-0,7274;-0,0340;56,35353686;37,51074734;3,18000007;
16:14:17:774;0,0138;-0,7672;-0,0687;56,35353686;37,51074734;3,18000007;
16:14:17:792;0,0138;-0,7672;-0,0687;56,35353686;37,51074734;3,18000007;
16:14:17:795;0,0120;-0,7513;-0,0673;56,35353686;37,51074734;3,18000007;
16:14:17:850;0,0120;-0,7513;-0,0673;56,35353686;37,51074734;3,18000007;
16:14:17:853;0,0120;-0,7513;-0,0673;56,35353686;37,51074734;3,18000007;
16:14:17:855;0,0421;-0,6904;0,0791;56,35353686;37,51074734;3,18000007;
16:14:17:911;0,0421;-0,6904;0,0791;56,35353686;37,51074734;3,18000007;
16:14:17:913;0,0421;-0,6904;0,0791;56,35353686;37,51074734;3,18000007;
16:14:17:918;0,2076;-0,6823;0,2231;56,35353686;37,51074734;3,18000007;
16:14:17:924;0,2076;-0,6823;0,2231;56,35353686;37,51074734;3,18000007;
16:14:17:981;0,2076;-0,6823;0,2231;56,35353686;37,51074734;3,18000007;
16:14:17:986;0,2076;-0,6823;0,2231;56,35353686;37,51074734;3,18000007;
16:14:17:988;0,0834;-0,5567;0,1215;56,35353686;37,51074734;3,18000007;
16:14:18:041;0,0834;-0,5567;0,1215;56,35353686;37,51074734;3,18000007;
16:14:18:044;0,0834;-0,5567;0,1215;56,35353686;37,51074734;3,18000007;
16:14:18:046;0,0131;-0,4133;0,0262;56,35353686;37,51074734;3,18000007;
16:14:18:102;0,0131;-0,4133;0,0262;56,35353686;37,51074734;3,18000007;
16:14:18:104;0,0131;-0,4133;0,0262;56,35353686;37,51074734;3,18000007;
16:14:18:106;0,0158;-0,4398;-0,0239;56,35353686;37,51074734;3,18000007;
16:14:18:162;0,0158;-0,4398;-0,0239;56,35353686;37,51074734;3,18000007;
16:14:18:164;0,0158;-0,4398;-0,0239;56,35353686;37,51074734;3,18000007;
16:14:18:169;0,0554;-0,3990;0,0630;56,35353686;37,51074734;3,18000007;
16:14:18:221;0,0554;-0,3990;0,0630;56,35353686;37,51074734;3,18000007;
16:14:18:223;0,0554;-0,3990;0,0630;56,35352916;37,51077929;2,13000011;
16:14:18:224;0,1149;-0,3121;0,0871;56,35352916;37,51077929;2,13000011;
16:14:18:282;0,1149;-0,3121;0,0871;56,35352916;37,51077929;2,13000011;
16:14:18:284;0,1149;-0,3121;0,0871;56,35352916;37,51077929;2,13000011;
16:14:18:286;0,0936;-0,2798;0,0389;56,35352916;37,51077929;2,13000011;
16:14:18:364;0,0936;-0,2798;0,0389;56,35352916;37,51077929;2,13000011;
16:14:18:368;0,0936;-0,2798;0,0389;56,35352916;37,51077929;2,13000011;
16:14:18:370;0,0246;-0,2536;-0,0012;56,35352916;37,51077929;2,13000011;
16:14:18:422;0,0246;-0,2536;-0,0012;56,35352916;37,51077929;2,13000011;
16:14:18:424;0,0246;-0,2536;-0,0012;56,35352916;37,51077929;2,13000011;
16:14:18:425;0,0025;-0,2766;-0,0152;56,35352916;37,51077929;2,13000011;
16:14:18:493;0,0025;-0,2766;-0,0152;56,35352916;37,51077929;2,13000011;
16:14:18:495;0,0025;-0,2766;-0,0152;56,35352916;37,51077929;2,13000011;
16:14:18:496;-0,0173;-0,1884;0,0121;56,35352916;37,51077929;2,13000011;
16:14:18:554;-0,0173;-0,1884;0,0121;56,35352916;37,51077929;2,13000011;
16:14:18:557;-0,0173;-0,1884;0,0121;56,35352916;37,51077929;2,13000011;
16:14:18:560;0,0058;-0,1944;0,0843;56,35352916;37,51077929;2,13000011;
16:14:18:624;0,0058;-0,1944;0,0843;56,35352916;37,51077929;2,13000011;
16:14:18:626;0,0058;-0,1944;0,0843;56,35352916;37,51077929;2,13000011;
16:14:18:627;0,0512;-0,1889;0,0466;56,35352916;37,51077929;2,13000011;
16:14:18:686;0,0512;-0,1889;0,0466;56,35352916;37,51077929;2,13000011;
16:14:18:689;0,0512;-0,1889;0,0466;56,35352916;37,51077929;2,13000011;
16:14:18:691;0,0754;-0,1347;-0,0416;56,35352916;37,51077929;2,13000011;
16:14:18:746;0,0754;-0,1347;-0,0416;56,35352916;37,51077929;2,13000011;
16:14:18:751;0,0754;-0,1347;-0,0416;56,35352916;37,51077929;2,13000011;
16:14:18:753;0,0036;-0,0722;-0,0014;56,35352916;37,51077929;2,13000011;
16:14:18:806;0,0036;-0,0722;-0,0014;56,35352916;37,51077929;2,13000011;
16:14:18:809;0,0036;-0,0722;-0,0014;56,35352916;37,51077929;2,13000011;
16:14:18:811;-0,0050;-0,0071;0,0260;56,35352916;37,51077929;2,13000011;
16:14:18:827;-0,0050;-0,0071;0,0260;56,35352916;37,51077929;2,13000011;
16:14:18:830;-0,0050;-0,0071;0,0260;56,35352916;37,51077929;2,13000011;
16:14:18:833;-0,0149;-0,0129;0,0147;56,35352916;37,51077929;2,13000011;
16:14:18:884;-0,0149;-0,0129;0,0147;56,35352916;37,51077929;2,13000011;
16:14:18:886;-0,0149;-0,0129;0,0147;56,35352916;37,51077929;2,13000011;
16:14:18:888;-0,0055;0,0401;0,0331;56,35352916;37,51077929;2,13000011;
16:14:18:945;-0,0055;0,0401;0,0331;56,35352916;37,51077929;2,13000011;
16:14:18:946;-0,0055;0,0401;0,0331;56,35352916;37,51077929;2,13000011;
16:14:18:949;0,0067;0,1468;-0,0149;56,35352916;37,51077929;2,13000011;
16:14:19:006;0,0067;0,1468;-0,0149;56,35352916;37,51077929;2,13000011;
16:14:19:007;0,0067;0,1468;-0,0149;56,35352916;37,51077929;2,13000011;
16:14:19:008;-0,0434;0,3117;-0,0525;56,35352916;37,51077929;2,13000011;
16:14:19:066;-0,0434;0,3117;-0,0525;56,35352916;37,51077929;2,13000011;
16:14:19:069;-0,0434;0,3117;-0,0525;56,35352916;37,51077929;2,13000011;
16:14:19:071;-0,0662;0,4653;-0,0146;56,35352916;37,51077929;2,13000011;
16:14:19:147;-0,0662;0,4653;-0,0146;56,35352916;37,51077929;2,13000011;
16:14:19:150;-0,0662;0,4653;-0,0146;56,35352916;37,51077929;2,13000011;
16:14:19:153;-0,0812;0,5879;-0,0132;56,35352916;37,51077929;2,13000011;
16:14:19:206;-0,0812;0,5879;-0,0132;56,35352916;37,51077929;2,13000011;
16:14:19:208;-0,0812;0,5879;-0,0132;56,35352916;37,51077929;2,13000011;
16:14:19:209;-0,0789;0,6876;-0,0045;56,35352916;37,51077929;2,13000011;
16:14:19:266;-0,0789;0,6876;-0,0045;56,35352916;37,51077929;2,13000011;
16:14:19:268;-0,0789;0,6876;-0,0045;56,35352916;37,51077929;2,13000011;
16:14:19:269;-0,0703;0,7648;-0,0047;56,35352916;37,51077929;2,13000011;
16:14:19:329;-0,0703;0,7648;-0,0047;56,35352916;37,51077929;2,13000011;
16:14:19:332;-0,0703;0,7648;-0,0047;56,35352916;37,51077929;2,13000011;
16:14:19:334;-0,0708;0,8085;-0,0457;56,35352916;37,51077929;2,13000011;
16:14:19:409;-0,0708;0,8085;-0,0457;56,35352916;37,51077929;2,13000011;
16:14:19:412;-0,0708;0,8085;-0,0457;56,35352916;37,51077929;2,13000011;
16:14:19:414;-0,0932;0,7507;-0,0600;56,35352916;37,51077929;2,13000011;
16:14:19:459;-0,0932;0,7507;-0,0600;56,35352916;37,51077929;2,13000011;
16:14:19:461;-0,1017;0,6821;-0,0509;56,35352916;37,51077929;2,13000011;
16:14:19:464;-0,1017;0,6821;-0,0509;56,35352916;37,51077929;2,13000011;
16:14:19:510;-0,1017;0,6821;-0,0509;56,35352916;37,51077929;2,13000011;
16:14:19:512;-0,1017;0,6821;-0,0509;56,35352916;37,51077929;2,13000011;
16:14:19:515;-0,0713;0,5504;-0,0293;56,35352916;37,51077929;2,13000011;
16:14:19:570;-0,0713;0,5504;-0,0293;56,35352916;37,51077929;2,13000011;
16:14:19:573;-0,0713;0,5504;-0,0293;56,35352916;37,51077929;2,13000011;
16:14:19:575;-0,0234;0,4696;-0,0097;56,35352916;37,51077929;2,13000011;
16:14:19:612;-0,0234;0,4696;-0,0097;56,35352916;37,51077929;2,13000011;
16:14:19:615;-0,0234;0,4696;-0,0097;56,35352916;37,51077929;2,13000011;
16:14:19:618;-0,0553;0,4501;-0,0168;56,35352916;37,51077929;2,13000011;
16:14:19:670;-0,0553;0,4501;-0,0168;56,35352916;37,51077929;2,13000011;
16:14:19:673;-0,0553;0,4501;-0,0168;56,35352916;37,51077929;2,13000011;
16:14:19:675;-0,0632;0,4566;-0,0355;56,35352916;37,51077929;2,13000011;
16:14:19:730;-0,0632;0,4566;-0,0355;56,35352916;37,51077929;2,13000011;
16:14:19:734;-0,0632;0,4566;-0,0355;56,35352916;37,51077929;2,13000011;
16:14:19:735;-0,0575;0,5172;-0,0153;56,35352916;37,51077929;2,13000011;
16:14:19:791;-0,0575;0,5172;-0,0153;56,35352916;37,51077929;2,13000011;
16:14:19:793;-0,0575;0,5172;-0,0153;56,35352916;37,51077929;2,13000011;
16:14:19:796;-0,0728;0,7106;0,0358;56,35352916;37,51077929;2,13000011;
16:14:19:853;-0,0728;0,7106;0,0358;56,35352916;37,51077929;2,13000011;
16:14:19:855;-0,0728;0,7106;0,0358;56,35352916;37,51077929;2,13000011;
16:14:19:857;-0,0863;0,8256;0,0224;56,35352916;37,51077929;2,13000011;
16:14:19:932;-0,0863;0,8256;0,0224;56,35352916;37,51077929;2,13000011;
16:14:19:935;-0,0863;0,8256;0,0224;56,35352916;37,51077929;2,13000011;
16:14:19:936;-0,1084;0,7531;-0,0636;56,35352916;37,51077929;2,13000011;
16:14:19:971;-0,1084;0,7531;-0,0636;56,35352916;37,51077929;2,13000011;
16:14:19:973;-0,1061;0,7400;-0,0626;56,35352916;37,51077929;2,13000011;
16:14:20:022;-0,1061;0,7400;-0,0626;56,35352916;37,51077929;2,13000011;
16:14:20:025;-0,1061;0,7400;-0,0626;56,35352916;37,51077929;2,13000011;
16:14:20:027;-0,0716;0,5592;-0,1039;56,35352916;37,51077929;2,13000011;
16:14:20:083;-0,0716;0,5592;-0,1039;56,35352916;37,51077929;2,13000011;
16:14:20:085;-0,0716;0,5592;-0,1039;56,35352916;37,51077929;2,13000011;
16:14:20:087;-0,0368;0,4879;-0,0654;56,35352916;37,51077929;2,13000011;
16:14:20:133;-0,0368;0,4879;-0,0654;56,35352916;37,51077929;2,13000011;
16:14:20:184;-0,0368;0,4879;-0,0654;56,35352916;37,51077929;2,13000011;
16:14:20:186;-0,0368;0,4879;-0,0654;56,35352916;37,51077929;2,13000011;
16:14:20:187;-0,0902;0,5195;0,0248;56,35352916;37,51077929;2,13000011;
16:14:20:242;-0,0902;0,5195;0,0248;56,35352916;37,51077929;2,13000011;
16:14:20:243;-0,0902;0,5195;0,0248;56,35352916;37,51077929;2,13000011;
16:14:20:244;-0,0277;0,4473;-0,0344;56,35352916;37,51077929;2,13000011;
16:14:20:303;-0,0277;0,4473;-0,0344;56,35352916;37,51077929;2,13000011;
16:14:20:306;-0,0277;0,4473;-0,0344;56,35352916;37,51077929;2,13000011;
16:14:20:308;-0,0052;0,3886;-0,0423;56,35352916;37,51077929;2,13000011;
16:14:20:364;-0,0052;0,3886;-0,0423;56,35352916;37,51077929;2,13000011;
16:14:20:366;-0,0052;0,3886;-0,0423;56,35352916;37,51077929;2,13000011;
16:14:20:369;-0,0557;0,3352;-0,0262;56,35352916;37,51077929;2,13000011;
16:14:20:394;-0,0557;0,3352;-0,0262;56,35352916;37,51077929;2,13000011;
16:14:20:397;-0,0492;0,2971;-0,0233;56,35352916;37,51077929;2,13000011;
16:14:20:445;-0,0492;0,2971;-0,0233;56,35352916;37,51077929;2,13000011;
16:14:20:448;-0,0492;0,2971;-0,0233;56,35352916;37,51077929;2,13000011;
16:14:20:450;-0,0497;0,2486;0,0396;56,35352916;37,51077929;2,13000011;
16:14:20:505;-0,0497;0,2486;0,0396;56,35352916;37,51077929;2,13000011;
16:14:20:509;-0,0497;0,2486;0,0396;56,35352916;37,51077929;2,13000011;
16:14:20:510;-0,0119;0,2638;-0,0081;56,35352916;37,51077929;2,13000011;
16:14:20:564;-0,0119;0,2638;-0,0081;56,35352916;37,51077929;2,13000011;
16:14:20:567;-0,0200;0,2384;-0,0508;56,35352916;37,51077929;2,13000011;
16:14:20:570;-0,0200;0,2384;-0,0508;56,35352916;37,51077929;2,13000011;
16:14:20:625;-0,0200;0,2384;-0,0508;56,35352916;37,51077929;2,13000011;
16:14:20:628;-0,0200;0,2384;-0,0508;56,35352916;37,51077929;2,13000011;
16:14:20:632;-0,0324;0,1748;-0,0051;56,35352916;37,51077929;2,13000011;
16:14:20:655;-0,0324;0,1748;-0,0051;56,35352916;37,51077929;2,13000011;
16:14:20:716;-0,0324;0,1748;-0,0051;56,35352916;37,51077929;2,13000011;
16:14:20:719;-0,0324;0,1748;-0,0051;56,35352916;37,51077929;2,13000011;
16:14:20:721;0,0011;0,1933;0,0153;56,35352916;37,51077929;2,13000011;
16:14:20:776;0,0011;0,1933;0,0153;56,35352916;37,51077929;2,13000011;
16:14:20:779;0,0011;0,1933;0,0153;56,35352916;37,51077929;2,13000011;
16:14:20:782;-0,0536;0,1696;-0,0183;56,35352916;37,51077929;2,13000011;
16:14:20:836;-0,0536;0,1696;-0,0183;56,35352916;37,51077929;2,13000011;
16:14:20:839;-0,0536;0,1696;-0,0183;56,35352916;37,51077929;2,13000011;
16:14:20:842;-0,0287;0,1243;-0,0049;56,35352916;37,51077929;2,13000011;
16:14:20:897;-0,0287;0,1243;-0,0049;56,35352916;37,51077929;2,13000011;
16:14:20:900;-0,0287;0,1243;-0,0049;56,35352916;37,51077929;2,13000011;
16:14:20:902;0,0132;0,1111;0,0098;56,35352916;37,51077929;2,13000011;
16:14:20:977;0,0132;0,1111;0,0098;56,35352916;37,51077929;2,13000011;
16:14:20:980;0,0132;0,1111;0,0098;56,35352916;37,51077929;2,13000011;
16:14:20:982;-0,0111;0,1117;0,0176;56,35352916;37,51077929;2,13000011;
16:14:21:037;-0,0111;0,1117;0,0176;56,35352916;37,51077929;2,13000011;
16:14:21:040;-0,0111;0,1117;0,0176;56,35352916;37,51077929;2,13000011;
16:14:21:042;-0,0250;0,0805;-0,0567;56,35352916;37,51077929;2,13000011;
16:14:21:098;-0,0250;0,0805;-0,0567;56,35352916;37,51077929;2,13000011;
16:14:21:100;-0,0250;0,0805;-0,0567;56,35352916;37,51077929;2,13000011;
16:14:21:102;0,0005;0,0801;-0,0220;56,35352916;37,51077929;2,13000011;
16:14:21:158;0,0005;0,0801;-0,0220;56,35352916;37,51077929;2,13000011;
16:14:21:160;0,0005;0,0801;-0,0220;56,35352916;37,51077929;2,13000011;
16:14:21:162;0,0025;0,0733;0,0191;56,35352916;37,51077929;2,13000011;
16:14:21:178;0,0025;0,0733;0,0191;56,35352916;37,51077929;2,13000011;
16:14:21:181;0,0025;0,0733;0,0191;56,35352916;37,51077929;2,13000011;
16:14:21:185;-0,0318;0,0670;0,0365;56,35352916;37,51077929;2,13000011;
16:14:21:239;-0,0113;0,0436;0,0186;56,35352916;37,51077929;2,13000011;
16:14:21:242;-0,0113;0,0436;0,0186;56,35352916;37,51077929;2,13000011;
16:14:21:243;-0,0113;0,0436;0,0186;56,35352916;37,51077929;2,13000011;
16:14:21:299;-0,0113;0,0436;0,0186;56,35352916;37,51077929;2,13000011;
16:14:21:302;-0,0113;0,0436;0,0186;56,35352916;37,51077929;2,13000011;
16:14:21:304;0,0288;0,0595;-0,0119;56,35352916;37,51077929;2,13000011;
16:14:21:359;0,0288;0,0595;-0,0119;56,35352916;37,51077929;2,13000011;
16:14:21:361;0,0288;0,0595;-0,0119;56,35352916;37,51077929;2,13000011;
16:14:21:368;0,0144;0,0690;0,0043;56,35352916;37,51077929;2,13000011;
16:14:21:421;0,0144;0,0690;0,0043;56,35352916;37,51077929;2,13000011;
16:14:21:423;0,0144;0,0690;0,0043;56,35352916;37,51077929;2,13000011;
16:14:21:425;-0,0413;0,0392;0,0060;56,35352916;37,51077929;2,13000011;
16:14:21:500;-0,0413;0,0392;0,0060;56,35352916;37,51077929;2,13000011;
16:14:21:503;-0,0413;0,0392;0,0060;56,35352916;37,51077929;2,13000011;
16:14:21:505;-0,0148;0,0043;0,0036;56,35352916;37,51077929;2,13000011;
16:14:21:560;-0,0148;0,0043;0,0036;56,35352916;37,51077929;2,13000011;
16:14:21:563;-0,0148;0,0043;0,0036;56,35352916;37,51077929;2,13000011;
16:14:21:564;0,0247;0,0201;-0,0362;56,35352916;37,51077929;2,13000011;
16:14:21:620;0,0247;0,0201;-0,0362;56,35352916;37,51077929;2,13000011;
16:14:21:625;0,0247;0,0201;-0,0362;56,35352916;37,51077929;2,13000011;
16:14:21:626;-0,0161;0,0372;-0,0109;56,35352916;37,51077929;2,13000011;
16:14:21:680;-0,0161;0,0372;-0,0109;56,35352916;37,51077929;2,13000011;
16:14:21:682;-0,0161;0,0372;-0,0109;56,35352916;37,51077929;2,13000011;
16:14:21:683;-0,0176;0,0356;0,0215;56,35352916;37,51077929;2,13000011;
16:14:21:761;-0,0176;0,0356;0,0215;56,35352916;37,51077929;2,13000011;
16:14:21:763;-0,0176;0,0356;0,0215;56,35352916;37,51077929;2,13000011;
16:14:21:765;0,0101;0,0316;0,0252;56,35352916;37,51077929;2,13000011;
16:14:21:821;0,0101;0,0316;0,0252;56,35352916;37,51077929;2,13000011;
16:14:21:823;0,0101;0,0316;0,0252;56,35352916;37,51077929;2,13000011;
16:14:21:825;0,0089;0,0108;-0,0110;56,35352916;37,51077929;2,13000011;
16:14:21:881;0,0089;0,0108;-0,0110;56,35352916;37,51077929;2,13000011;
16:14:21:883;0,0089;0,0108;-0,0110;56,35352916;37,51077929;2,13000011;
16:14:21:885;-0,0357;-0,0039;-0,0193;56,35352916;37,51077929;2,13000011;
16:14:21:942;-0,0357;-0,0039;-0,0193;56,35352916;37,51077929;2,13000011;
16:14:21:944;-0,0357;-0,0039;-0,0193;56,35352916;37,51077929;2,13000011;
16:14:21:945;-0,0101;0,0051;0,0180;56,35352916;37,51077929;2,13000011;
16:14:21:962;-0,0101;0,0051;0,0180;56,35352916;37,51077929;2,13000011;
16:14:21:964;-0,0101;0,0051;0,0180;56,35352916;37,51077929;2,13000011;
16:14:21:965;0,0307;0,0343;0,0032;56,35352916;37,51077929;2,13000011;
16:14:22:023;0,0307;0,0343;0,0032;56,35352916;37,51077929;2,13000011;
16:14:22:025;0,0307;0,0343;0,0032;56,35352916;37,51077929;2,13000011;
16:14:22:027;-0,0125;0,0258;-0,0085;56,35352916;37,51077929;2,13000011;
16:14:22:083;-0,0125;0,0258;-0,0085;56,35352916;37,51077929;2,13000011;
16:14:22:086;-0,0125;0,0258;-0,0085;56,35352916;37,51077929;2,13000011;
16:14:22:087;-0,0217;0,0058;-0,0132;56,35352916;37,51077929;2,13000011;
16:14:22:144;-0,0217;0,0058;-0,0132;56,35352916;37,51077929;2,13000011;
16:14:22:147;-0,0217;0,0058;-0,0132;56,35352916;37,51077929;2,13000011;
16:14:22:149;0,0105;-0,0061;-0,0018;56,35352916;37,51077929;2,13000011;
16:14:22:202;0,0105;-0,0061;-0,0018;56,35352916;37,51077929;2,13000011;
16:14:22:204;0,0105;-0,0061;-0,0018;56,35352916;37,51077929;2,13000011;
16:14:22:206;0,0205;0,0070;0,0001;56,35352916;37,51077929;2,13000011;
16:14:22:284;0,0205;0,0070;0,0001;56,35352916;37,51077929;2,13000011;
16:14:22:287;0,0205;0,0070;0,0001;56,35352916;37,51077929;2,13000011;
16:14:22:289;-0,0275;0,0122;-0,0166;56,35352916;37,51077929;2,13000011;
16:14:22:345;-0,0275;0,0122;-0,0166;56,35352916;37,51077929;2,13000011;
16:14:22:347;-0,0275;0,0122;-0,0166;56,35352916;37,51077929;2,13000011;
16:14:22:350;-0,0035;0,0074;-0,0002;56,35352916;37,51077929;2,13000011;
16:14:22:405;-0,0035;0,0074;-0,0002;56,35352916;37,51077929;2,13000011;
16:14:22:408;0,0352;0,0173;-0,0190;56,35352916;37,51077929;2,13000011;
16:14:22:410;0,0352;0,0173;-0,0190;56,35352916;37,51077929;2,13000011;
16:14:22:465;0,0352;0,0173;-0,0190;56,35352916;37,51077929;2,13000011;
16:14:22:469;0,0352;0,0173;-0,0190;56,35352916;37,51077929;2,13000011;
16:14:22:471;-0,0124;-0,0031;0,0076;56,35352916;37,51077929;2,13000011;
16:14:22:546;-0,0124;-0,0031;0,0076;56,35352916;37,51077929;2,13000011;
16:14:22:549;-0,0370;-0,0061;0,0061;56,35352916;37,51077929;2,13000011;
16:14:22:551;-0,0370;-0,0061;0,0061;56,35352916;37,51077929;2,13000011;
16:14:22:606;-0,0370;-0,0061;0,0061;56,35352916;37,51077929;2,13000011;
16:14:22:609;-0,0370;-0,0061;0,0061;56,35352916;37,51077929;2,13000011;
16:14:22:611;0,0132;0,0094;0,0203;56,35352916;37,51077929;2,13000011;
16:14:22:667;0,0132;0,0094;0,0203;56,35352916;37,51077929;2,13000011;
16:14:22:670;0,0132;0,0094;0,0203;56,35352916;37,51077929;2,13000011;
16:14:22:671;0,0280;0,0128;-0,0018;56,35352916;37,51077929;2,13000011;
16:14:22:726;0,0280;0,0128;-0,0018;56,35352916;37,51077929;2,13000011;
16:14:22:729;0,0280;0,0128;-0,0018;56,35352916;37,51077929;2,13000011;
16:14:22:731;-0,0058;0,0009;-0,0268;56,35352916;37,51077929;2,13000011;
16:14:22:747;-0,0058;0,0009;-0,0268;56,35352916;37,51077929;2,13000011;
16:14:22:749;-0,0058;0,0009;-0,0268;56,35352916;37,51077929;2,13000011;
16:14:22:750;-0,0083;-0,0046;0,0046;56,35352916;37,51077929;2,13000011;
16:14:22:807;-0,0083;-0,0046;0,0046;56,35352916;37,51077929;2,13000011;
16:14:22:810;-0,0083;-0,0046;0,0046;56,35352916;37,51077929;2,13000011;
16:14:22:812;0,0163;0,0022;-0,0027;56,35352916;37,51077929;2,13000011;
16:14:22:867;0,0163;0,0022;-0,0027;56,35352916;37,51077929;2,13000011;
16:14:22:870;0,0163;0,0022;-0,0027;56,35352916;37,51077929;2,13000011;
16:14:22:871;-0,0126;0,0154;-0,0024;56,35352916;37,51077929;2,13000011;
16:14:22:927;-0,0126;0,0154;-0,0024;56,35352916;37,51077929;2,13000011;
16:14:22:930;-0,0126;0,0154;-0,0024;56,35352916;37,51077929;2,13000011;
16:14:22:933;-0,0249;-0,0158;-0,0060;56,35352916;37,51077929;2,13000011;
16:14:22:988;-0,0249;-0,0158;-0,0060;56,35352916;37,51077929;2,13000011;
16:14:22:991;-0,0249;-0,0158;-0,0060;56,35352916;37,51077929;2,13000011;
16:14:22:993;0,0253;-0,0040;0,0035;56,35352916;37,51077929;2,13000011;
16:14:23:068;0,0253;-0,0040;0,0035;56,35352916;37,51077929;2,13000011;
16:14:23:071;0,0253;-0,0040;0,0035;56,35352916;37,51077929;2,13000011;
16:14:23:073;0,0230;0,0222;0,0169;56,35352916;37,51077929;2,13000011;
16:14:23:129;0,0230;0,0222;0,0169;56,35352916;37,51077929;2,13000011;
16:14:23:132;0,0230;0,0222;0,0169;56,35352916;37,51077929;2,13000011;
16:14:23:134;-0,0198;0,0117;-0,0090;56,35352916;37,51077929;2,13000011;
16:14:23:194;-0,0198;0,0117;-0,0090;56,35352916;37,51077929;2,13000011;
16:14:23:196;-0,0198;0,0117;-0,0090;56,35353861;37,51076682;0,00000000;
16:14:23:198;-0,0087;-0,0169;0,0086;56,35353861;37,51076682;0,00000000;
16:14:23:248;-0,0087;-0,0169;0,0086;56,35353861;37,51076682;0,00000000;
16:14:23:250;0,0197;0,0019;0,0222;56,35353861;37,51076682;0,00000000;
16:14:23:251;0,0197;0,0019;0,0222;56,35353861;37,51076682;0,00000000;
16:14:23:330;0,0197;0,0019;0,0222;56,35353861;37,51076682;0,00000000;
16:14:23:333;0,0197;0,0019;0,0222;56,35353861;37,51076682;0,00000000;
16:14:23:336;-0,0086;0,0076;0,0141;56,35353861;37,51076682;0,00000000;
16:14:23:391;-0,0086;0,0076;0,0141;56,35353861;37,51076682;0,00000000;
16:14:23:393;-0,0086;0,0076;0,0141;56,35353861;37,51076682;0,00000000;
16:14:23:396;-0,0206;-0,0004;-0,0265;56,35353861;37,51076682;0,00000000;
16:14:23:451;-0,0206;-0,0004;-0,0265;56,35353861;37,51076682;0,00000000;
16:14:23:454;-0,0206;-0,0004;-0,0265;56,35353861;37,51076682;0,00000000;
16:14:23:456;0,0255;0,0066;0,0006;56,35353861;37,51076682;0,00000000;
16:14:23:511;0,0255;0,0066;0,0006;56,35353861;37,51076682;0,00000000;
16:14:23:513;0,0255;0,0066;0,0006;56,35353861;37,51076682;0,00000000;
16:14:23:515;0,0250;0,0061;0,0108;56,35353861;37,51076682;0,00000000;
16:14:23:533;0,0250;0,0061;0,0108;56,35353861;37,51076682;0,00000000;
16:14:23:536;0,0250;0,0061;0,0108;56,35353861;37,51076682;0,00000000;
16:14:23:539;-0,0161;-0,0040;-0,0053;56,35353861;37,51076682;0,00000000;
16:14:23:596;-0,0161;-0,0040;-0,0053;56,35353861;37,51076682;0,00000000;
16:14:23:599;-0,0161;-0,0040;-0,0053;56,35353861;37,51076682;0,00000000;
16:14:23:601;-0,0226;-0,0215;-0,0079;56,35353861;37,51076682;0,00000000;
16:14:23:652;-0,0226;-0,0215;-0,0079;56,35353861;37,51076682;0,00000000;
16:14:23:655;-0,0226;-0,0215;-0,0079;56,35353861;37,51076682;0,00000000;
16:14:23:657;0,0144;0,0060;0,0001;56,35353861;37,51076682;0,00000000;
16:14:23:711;0,0144;0,0060;0,0001;56,35353861;37,51076682;0,00000000;
16:14:23:714;0,0144;0,0060;0,0001;56,35353861;37,51076682;0,00000000;
16:14:23:716;0,0091;0,0170;-0,0014;56,35353861;37,51076682;0,00000000;
16:14:23:771;0,0091;0,0170;-0,0014;56,35353861;37,51076682;0,00000000;
16:14:23:775;0,0091;0,0170;-0,0014;56,35353861;37,51076682;0,00000000;
16:14:23:776;-0,0284;0,0022;-0,0061;56,35353861;37,51076682;0,00000000;
16:14:23:852;-0,0284;0,0022;-0,0061;56,35353861;37,51076682;0,00000000;
16:14:23:856;-0,0284;0,0022;-0,0061;56,35353861;37,51076682;0,00000000;
16:14:23:859;0,0089;-0,0173;0,0176;56,35353861;37,51076682;0,00000000;
16:14:23:913;0,0089;-0,0173;0,0176;56,35353861;37,51076682;0,00000000;
16:14:23:916;0,0089;-0,0173;0,0176;56,35353861;37,51076682;0,00000000;
16:14:23:919;0,0350;0,0045;-0,0014;56,35353861;37,51076682;0,00000000;
16:14:23:974;0,0350;0,0045;-0,0014;56,35353861;37,51076682;0,00000000;
16:14:23:976;0,0350;0,0045;-0,0014;56,35353861;37,51076682;0,00000000;
16:14:23:979;-0,0146;0,0155;-0,0214;56,35353861;37,51076682;0,00000000;
16:14:24:034;-0,0146;0,0155;-0,0214;56,35353861;37,51076682;0,00000000;
16:14:24:036;-0,0146;0,0155;-0,0214;56,35353861;37,51076682;0,00000000;
16:14:24:038;-0,0273;-0,0150;-0,0134;56,35353861;37,51076682;0,00000000;
16:14:24:114;-0,0273;-0,0150;-0,0134;56,35353861;37,51076682;0,00000000;
16:14:24:117;0,0179;-0,0026;0,0278;56,35353861;37,51076682;0,00000000;
16:14:24:120;0,0179;-0,0026;0,0278;56,35353861;37,51076682;0,00000000;
16:14:24:175;0,0179;-0,0026;0,0278;56,35353861;37,51076682;0,00000000;
16:14:24:177;0,0194;-0,0004;0,0148;56,35353861;37,51076682;0,00000000;
16:14:24:181;0,0194;-0,0004;0,0148;56,35353861;37,51076682;0,00000000;
16:14:24:234;0,0194;-0,0004;0,0148;56,35353861;37,51076682;0,00000000;
16:14:24:238;0,0194;-0,0004;0,0148;56,35353861;37,51076682;0,00000000;
16:14:24:239;-0,0171;-0,0018;-0,0322;56,35353861;37,51076682;0,00000000;
16:14:24:294;-0,0171;-0,0018;-0,0322;56,35353861;37,51076682;0,00000000;
16:14:24:296;-0,0171;-0,0018;-0,0322;56,35353861;37,51076682;0,00000000;
16:14:24:298;-0,0140;-0,0076;0,0072;56,35353861;37,51076682;0,00000000;
16:14:24:316;-0,0140;-0,0076;0,0072;56,35353861;37,51076682;0,00000000;
16:14:24:318;-0,0140;-0,0076;0,0072;56,35353861;37,51076682;0,00000000;
16:14:24:319;0,0233;0,0076;0,0185;56,35353861;37,51076682;0,00000000;
16:14:24:376;0,0233;0,0076;0,0185;56,35353861;37,51076682;0,00000000;
16:14:24:378;0,0233;0,0076;0,0185;56,35353861;37,51076682;0,00000000;
16:14:24:380;-0,0109;0,0075;0,0029;56,35353861;37,51076682;0,00000000;
16:14:24:435;-0,0109;0,0075;0,0029;56,35353861;37,51076682;0,00000000;
16:14:24:438;-0,0109;0,0075;0,0029;56,35353861;37,51076682;0,00000000;
16:14:24:440;-0,0243;-0,0178;-0,0130;56,35353861;37,51076682;0,00000000;
16:14:24:496;-0,0243;-0,0178;-0,0130;56,35353861;37,51076682;0,00000000;
16:14:24:499;-0,0243;-0,0178;-0,0130;56,35353861;37,51076682;0,00000000;
16:14:24:501;0,0212;-0,0008;0,0015;56,35353861;37,51076682;0,00000000;
16:14:24:557;0,0212;-0,0008;0,0015;56,35353861;37,51076682;0,00000000;
16:14:24:560;0,0212;-0,0008;0,0015;56,35353861;37,51076682;0,00000000;
16:14:24:561;0,0183;0,0218;0,0032;56,35353861;37,51076682;0,00000000;
16:14:24:637;0,0183;0,0218;0,0032;56,35353861;37,51076682;0,00000000;
16:14:24:640;0,0183;0,0218;0,0032;56,35353861;37,51076682;0,00000000;
16:14:24:642;-0,0238;-0,0059;-0,0163;56,35353861;37,51076682;0,00000000;
16:14:24:698;-0,0238;-0,0059;-0,0163;56,35353861;37,51076682;0,00000000;
16:14:24:700;-0,0238;-0,0059;-0,0163;56,35353861;37,51076682;0,00000000;
16:14:24:703;0,0052;-0,0177;0,0288;56,35353861;37,51076682;0,00000000;
16:14:24:757;0,0052;-0,0177;0,0288;56,35353861;37,51076682;0,00000000;
16:14:24:759;0,0052;-0,0177;0,0288;56,35353861;37,51076682;0,00000000;
16:14:24:761;0,0402;0,0150;0,0089;56,35353861;37,51076682;0,00000000;
16:14:24:818;0,0402;0,0150;0,0089;56,35353861;37,51076682;0,00000000;
16:14:24:821;0,0402;0,0150;0,0089;56,35353861;37,51076682;0,00000000;
16:14:24:823;-0,0143;0,0081;-0,0148;56,35353861;37,51076682;0,00000000;
16:14:24:898;-0,0143;0,0081;-0,0148;56,35353861;37,51076682;0,00000000;
16:14:24:901;-0,0143;0,0081;-0,0148;56,35353861;37,51076682;0,00000000;
16:14:24:902;-0,0122;-0,0192;0,0032;56,35353861;37,51076682;0,00000000;
16:14:24:959;-0,0122;-0,0192;0,0032;56,35353861;37,51076682;0,00000000;
16:14:24:961;-0,0122;-0,0192;0,0032;56,35353861;37,51076682;0,00000000;
16:14:24:962;0,0240;0,0139;0,0212;56,35353861;37,51076682;0,00000000;
16:14:25:018;0,0240;0,0139;0,0212;56,35353861;37,51076682;0,00000000;
16:14:25:020;0,0240;0,0139;0,0212;56,35353861;37,51076682;0,00000000;
16:14:25:022;0,0116;0,0056;0,0061;56,35353861;37,51076682;0,00000000;
16:14:25:078;0,0116;0,0056;0,0061;56,35353861;37,51076682;0,00000000;
16:14:25:080;0,0116;0,0056;0,0061;56,35353861;37,51076682;0,00000000;
16:14:25:082;-0,0127;-0,0217;-0,0446;56,35353861;37,51076682;0,00000000;
16:14:25:100;-0,0127;-0,0217;-0,0446;56,35353861;37,51076682;0,00000000;
16:14:25:103;-0,0127;-0,0217;-0,0446;56,35353861;37,51076682;0,00000000;
16:14:25:104;-0,0126;-0,0004;0,0040;56,35353861;37,51076682;0,00000000;
16:14:25:158;-0,0126;-0,0004;0,0040;56,35353861;37,51076682;0,00000000;
16:14:25:161;-0,0126;-0,0004;0,0040;56,35353861;37,51076682;0,00000000;
16:14:25:165;0,0122;0,0140;0,0071;56,35353861;37,51076682;0,00000000;
16:14:25:220;0,0122;0,0140;0,0071;56,35353861;37,51076682;0,00000000;
16:14:25:222;0,0122;0,0140;0,0071;56,35353861;37,51076682;0,00000000;
16:14:25:224;-0,0136;0,0112;-0,0107;56,35353861;37,51076682;0,00000000;
16:14:25:281;-0,0136;0,0112;-0,0107;56,35353861;37,51076682;0,00000000;
16:14:25:285;-0,0136;0,0112;-0,0107;56,35353861;37,51076682;0,00000000;
16:14:25:289;-0,0039;-0,0075;-0,0013;56,35353861;37,51076682;0,00000000;
16:14:25:341;-0,0039;-0,0075;-0,0013;56,35353861;37,51076682;0,00000000;
16:14:25:343;0,0264;-0,0079;0,0236;56,35353861;37,51076682;0,00000000;
16:14:25:345;0,0264;-0,0079;0,0236;56,35353861;37,51076682;0,00000000;
16:14:25:421;0,0264;-0,0079;0,0236;56,35353861;37,51076682;0,00000000;
16:14:25:424;0,0264;-0,0079;0,0236;56,35353861;37,51076682;0,00000000;
16:14:25:426;0,0018;0,0036;0,0079;56,35353861;37,51076682;0,00000000;
16:14:25:483;0,0018;0,0036;0,0079;56,35353861;37,51076682;0,00000000;
16:14:25:486;0,0018;0,0036;0,0079;56,35353861;37,51076682;0,00000000;
16:14:25:488;-0,0358;-0,0064;-0,0054;56,35353861;37,51076682;0,00000000;
16:14:25:543;-0,0358;-0,0064;-0,0054;56,35353861;37,51076682;0,00000000;
16:14:25:546;-0,0358;-0,0064;-0,0054;56,35353861;37,51076682;0,00000000;
16:14:25:549;0,0019;-0,0083;0,0044;56,35353861;37,51076682;0,00000000;
16:14:25:603;0,0019;-0,0083;0,0044;56,35353861;37,51076682;0,00000000;
16:14:25:606;0,0019;-0,0083;0,0044;56,35353861;37,51076682;0,00000000;
16:14:25:609;0,0447;0,0037;-0,0010;56,35353861;37,51076682;0,00000000;
16:14:25:684;0,0447;0,0037;-0,0010;56,35353861;37,51076682;0,00000000;
16:14:25:688;0,0447;0,0037;-0,0010;56,35353861;37,51076682;0,00000000;
16:14:25:690;-0,0141;0,0068;0,0016;56,35353861;37,51076682;0,00000000;
16:14:25:743;-0,0141;0,0068;0,0016;56,35353861;37,51076682;0,00000000;
16:14:25:746;-0,0141;0,0068;0,0016;56,35353861;37,51076682;0,00000000;
16:14:25:748;-0,0235;-0,0131;-0,0082;56,35353861;37,51076682;0,00000000;
16:14:25:805;-0,0235;-0,0131;-0,0082;56,35353861;37,51076682;0,00000000;
16:14:25:808;-0,0235;-0,0131;-0,0082;56,35353861;37,51076682;0,00000000;
16:14:25:810;0,0250;0,0053;-0,0243;56,35353861;37,51076682;0,00000000;
16:14:25:864;0,0250;0,0053;-0,0243;56,35353861;37,51076682;0,00000000;
16:14:25:868;0,0250;0,0053;-0,0243;56,35353861;37,51076682;0,00000000;
16:14:25:871;0,0044;0,0077;0,0100;56,35353861;37,51076682;0,00000000;
16:14:25:888;-0,0279;-0,0045;-0,0014;56,35353861;37,51076682;0,00000000;
16:14:25:893;-0,0279;-0,0045;-0,0014;56,35353861;37,51076682;0,00000000;
16:14:25:895;-0,0279;-0,0045;-0,0014;56,35353861;37,51076682;0,00000000;
16:14:25:945;-0,0279;-0,0045;-0,0014;56,35353861;37,51076682;0,00000000;
16:14:25:948;-0,0279;-0,0045;-0,0014;56,35353861;37,51076682;0,00000000;
16:14:25:952;-0,0057;-0,0097;0,0286;56,35353861;37,51076682;0,00000000;
16:14:26:005;-0,0057;-0,0097;0,0286;56,35353861;37,51076682;0,00000000;
16:14:26:008;-0,0057;-0,0097;0,0286;56,35353861;37,51076682;0,00000000;
16:14:26:010;0,0282;0,0053;0,0030;56,35353861;37,51076682;0,00000000;
16:14:26:065;0,0282;0,0053;0,0030;56,35353861;37,51076682;0,00000000;
16:14:26:068;0,0282;0,0053;0,0030;56,35353861;37,51076682;0,00000000;
16:14:26:071;-0,0035;0,0160;-0,0044;56,35353861;37,51076682;0,00000000;
16:14:26:126;-0,0035;0,0160;-0,0044;56,35353861;37,51076682;0,00000000;
16:14:26:130;-0,0035;0,0160;-0,0044;56,35353861;37,51076682;0,00000000;
16:14:26:132;-0,0375;-0,0190;-0,0174;56,35353861;37,51076682;0,00000000;
16:14:26:205;-0,0375;-0,0190;-0,0174;56,35353861;37,51076682;0,00000000;
16:14:26:207;0,0108;-0,0191;0,0172;56,35353861;37,51076682;0,00000000;
16:14:26:213;0,0108;-0,0191;0,0172;56,35353861;37,51076682;0,00000000;
16:14:26:264;0,0108;-0,0191;0,0172;56,35353861;37,51076682;0,00000000;
16:14:26:266;0,0108;-0,0191;0,0172;56,35353861;37,51076682;0,00000000;
16:14:26:267;0,0275;0,0224;0,0053;56,35353861;37,51076682;0,00000000;
16:14:26:326;0,0275;0,0224;0,0053;56,35353861;37,51076682;0,00000000;
16:14:26:329;0,0275;0,0224;0,0053;56,35353861;37,51076682;0,00000000;
16:14:26:332;-0,0185;0,0113;-0,0084;56,35353861;37,51076682;0,00000000;
16:14:26:387;-0,0185;0,0113;-0,0084;56,35353861;37,51076682;0,00000000;
16:14:26:391;-0,0185;0,0113;-0,0084;56,35353861;37,51076682;0,00000000;
16:14:26:393;-0,0178;-0,0259;-0,0266;56,35353861;37,51076682;0,00000000;
16:14:26:468;-0,0178;-0,0259;-0,0266;56,35353861;37,51076682;0,00000000;
16:14:26:470;-0,0178;-0,0259;-0,0266;56,35353861;37,51076682;0,00000000;
16:14:26:472;0,0205;-0,0061;0,0193;56,35353861;37,51076682;0,00000000;
16:14:26:528;0,0205;-0,0061;0,0193;56,35353861;37,51076682;0,00000000;
16:14:26:531;0,0205;-0,0061;0,0193;56,35353861;37,51076682;0,00000000;
16:14:26:534;0,0231;0,0106;0,0065;56,35353861;37,51076682;0,00000000;
16:14:26:588;0,0231;0,0106;0,0065;56,35353861;37,51076682;0,00000000;
16:14:26:590;0,0231;0,0106;0,0065;56,35353861;37,51076682;0,00000000;
16:14:26:592;-0,0173;0,0122;-0,0247;56,35353861;37,51076682;0,00000000;
16:14:26:647;-0,0173;0,0122;-0,0247;56,35353861;37,51076682;0,00000000;
16:14:26:651;-0,0173;0,0122;-0,0247;56,35353861;37,51076682;0,00000000;
16:14:26:654;-0,0129;-0,0022;-0,0092;56,35353861;37,51076682;0,00000000;
16:14:26:669;-0,0129;-0,0022;-0,0092;56,35353861;37,51076682;0,00000000;
16:14:26:671;-0,0129;-0,0022;-0,0092;56,35353861;37,51076682;0,00000000;
16:14:26:672;0,0232;0,0137;0,0167;56,35353861;37,51076682;0,00000000;
16:14:26:727;0,0232;0,0137;0,0167;56,35353861;37,51076682;0,00000000;
16:14:26:729;0,0232;0,0137;0,0167;56,35353861;37,51076682;0,00000000;
16:14:26:730;0,0115;-0,0037;0,0141;56,35353861;37,51076682;0,00000000;
16:14:26:786;0,0115;-0,0037;0,0141;56,35353861;37,51076682;0,00000000;
16:14:26:788;0,0115;-0,0037;0,0141;56,35353861;37,51076682;0,00000000;
16:14:26:792;-0,0184;-0,0105;-0,0094;56,35353861;37,51076682;0,00000000;
16:14:26:847;-0,0184;-0,0105;-0,0094;56,35353861;37,51076682;0,00000000;
16:14:26:850;-0,0184;-0,0105;-0,0094;56,35353861;37,51076682;0,00000000;
16:14:26:851;0,0033;-0,0110;0,0076;56,35353861;37,51076682;0,00000000;
16:14:26:910;0,0033;-0,0110;0,0076;56,35353861;37,51076682;0,00000000;
16:14:26:913;0,0033;-0,0110;0,0076;56,35353861;37,51076682;0,00000000;
16:14:26:915;0,0307;0,0169;0,0011;56,35353861;37,51076682;0,00000000;
16:14:26:990;0,0307;0,0169;0,0011;56,35353861;37,51076682;0,00000000;
16:14:26:994;0,0307;0,0169;0,0011;56,35353861;37,51076682;0,00000000;
16:14:26:996;-0,0258;0,0087;-0,0040;56,35353861;37,51076682;0,00000000;
16:14:27:049;-0,0258;0,0087;-0,0040;56,35353861;37,51076682;0,00000000;
16:14:27:051;-0,0141;-0,0278;0,0025;56,35353861;37,51076682;0,00000000;
16:14:27:053;-0,0141;-0,0278;0,0025;56,35353861;37,51076682;0,00000000;
16:14:27:109;-0,0141;-0,0278;0,0025;56,35353861;37,51076682;0,00000000;
16:14:27:112;-0,0141;-0,0278;0,0025;56,35353861;37,51076682;0,00000000;
16:14:27:114;0,0318;0,0070;-0,0014;56,35353861;37,51076682;0,00000000;
16:14:27:171;0,0193;0,0170;0,0098;56,35353861;37,51076682;0,00000000;
16:14:27:174;0,0193;0,0170;0,0098;56,35353861;37,51076682;0,00000000;
16:14:27:176;0,0193;0,0170;0,0098;56,35353861;37,51076682;0,00000000;
16:14:27:250;0,0193;0,0170;0,0098;56,35353861;37,51076682;0,00000000;
16:14:27:252;0,0193;0,0170;0,0098;56,35353861;37,51076682;0,00000000;
16:14:27:253;-0,0282;0,0085;-0,0101;56,35353861;37,51076682;0,00000000;
16:14:27:311;-0,0282;0,0085;-0,0101;56,35353861;37,51076682;0,00000000;
16:14:27:313;-0,0282;0,0085;-0,0101;56,35353861;37,51076682;0,00000000;
16:14:27:315;-0,0137;-0,0146;0,0119;56,35353861;37,51076682;0,00000000;
16:14:27:373;-0,0137;-0,0146;0,0119;56,35353861;37,51076682;0,00000000;
16:14:27:376;-0,0137;-0,0146;0,0119;56,35353861;37,51076682;0,00000000;
16:14:27:379;0,0326;-0,0011;-0,0025;56,35353861;37,51076682;0,00000000;
16:14:27:432;0,0326;-0,0011;-0,0025;56,35353861;37,51076682;0,00000000;
16:14:27:434;0,0326;-0,0011;-0,0025;56,35353861;37,51076682;0,00000000;
16:14:27:435;-0,0013;0,0235;-0,0083;56,35353861;37,51076682;0,00000000;
16:14:27:456;-0,0013;0,0235;-0,0083;56,35353861;37,51076682;0,00000000;
16:14:27:459;-0,0013;0,0235;-0,0083;56,35353861;37,51076682;0,00000000;
16:14:27:461;-0,0245;-0,0182;-0,0080;56,35353861;37,51076682;0,00000000;
16:14:27:512;-0,0245;-0,0182;-0,0080;56,35353861;37,51076682;0,00000000;
16:14:27:514;-0,0245;-0,0182;-0,0080;56,35353861;37,51076682;0,00000000;
16:14:27:515;0,0106;-0,0093;0,0191;56,35353861;37,51076682;0,00000000;
16:14:27:573;0,0106;-0,0093;0,0191;56,35353861;37,51076682;0,00000000;
16:14:27:577;0,0106;-0,0093;0,0191;56,35353861;37,51076682;0,00000000;
16:14:27:580;0,0133;0,0154;-0,0032;56,35353861;37,51076682;0,00000000;
16:14:27:634;-0,0351;0,0027;-0,0149;56,35353861;37,51076682;0,00000000;
16:14:27:637;-0,0351;0,0027;-0,0149;56,35353861;37,51076682;0,00000000;
16:14:27:640;-0,0351;0,0027;-0,0149;56,35353861;37,51076682;0,00000000;
16:14:27:695;-0,0351;0,0027;-0,0149;56,35353861;37,51076682;0,00000000;
16:14:27:699;-0,0082;-0,0199;0,0179;56,35353861;37,51076682;0,00000000;
16:14:27:702;-0,0082;-0,0199;0,0179;56,35353861;37,51076682;0,00000000;
16:14:27:774;-0,0082;-0,0199;0,0179;56,35353861;37,51076682;0,00000000;
16:14:27:778;0,0468;0,0060;0,0149;56,35353861;37,51076682;0,00000000;
16:14:27:781;0,0468;0,0060;0,0149;56,35353861;37,51076682;0,00000000;
16:14:27:834;0,0468;0,0060;0,0149;56,35353861;37,51076682;0,00000000;
16:14:27:837;0,0468;0,0060;0,0149;56,35353861;37,51076682;0,00000000;
16:14:27:840;0,0009;0,0176;0,0058;56,35353861;37,51076682;0,00000000;
16:14:27:896;0,0009;0,0176;0,0058;56,35353861;37,51076682;0,00000000;
16:14:27:900;0,0009;0,0176;0,0058;56,35353861;37,51076682;0,00000000;
16:14:27:903;-0,0196;-0,0106;-0,0119;56,35353861;37,51076682;0,00000000;
16:14:27:956;-0,0196;-0,0106;-0,0119;56,35353861;37,51076682;0,00000000;
16:14:27:960;-0,0196;-0,0106;-0,0119;56,35353861;37,51076682;0,00000000;
16:14:27:962;0,0062;0,0031;0,0019;56,35353861;37,51076682;0,00000000;
16:14:28:037;0,0062;0,0031;0,0019;56,35353861;37,51076682;0,00000000;
16:14:28:040;0,0062;0,0031;0,0019;56,35353861;37,51076682;0,00000000;
16:14:28:043;0,0145;0,0086;-0,0008;56,35353861;37,51076682;0,00000000;
16:14:28:097;0,0145;0,0086;-0,0008;56,35353861;37,51076682;0,00000000;
16:14:28:101;0,0145;0,0086;-0,0008;56,35353861;37,51076682;0,00000000;
16:14:28:103;-0,0225;-0,0070;0,0018;56,35353861;37,51076682;0,00000000;
16:14:28:156;-0,0225;-0,0070;0,0018;56,35353861;37,51076682;0,00000000;
16:14:28:161;-0,0225;-0,0070;0,0018;56,35353861;37,51076682;0,00000000;
16:14:28:169;0,0088;-0,0124;0,0051;56,35353861;37,51076682;0,00000000;
16:14:28:215;0,0088;-0,0124;0,0051;56,35353861;37,51076682;0,00000000;
16:14:28:217;0,0243;0,0009;-0,0249;56,35353861;37,51076682;0,00000000;
16:14:28:219;0,0243;0,0009;-0,0249;56,35353861;37,51076682;0,00000000;
16:14:28:241;0,0243;0,0009;-0,0249;56,35353861;37,51076682;0,00000000;
16:14:28:243;0,0243;0,0009;-0,0249;56,35353861;37,51076682;0,00000000;
16:14:28:243;0,0086;0,0135;0,0158;56,35353861;37,51076682;0,00000000;
16:14:28:295;0,0086;0,0135;0,0158;56,35353861;37,51076682;0,00000000;
16:14:28:297;0,0086;0,0135;0,0158;56,35353861;37,51076682;0,00000000;
16:14:28:299;-0,0270;-0,0178;0,0180;56,35353861;37,51076682;0,00000000;
16:14:28:355;-0,0270;-0,0178;0,0180;56,35353861;37,51076682;0,00000000;
16:14:28:356;-0,0270;-0,0178;0,0180;56,35353861;37,51076682;0,00000000;
16:14:28:357;0,0061;-0,0094;-0,0077;56,35353861;37,51076682;0,00000000;
16:14:28:415;0,0061;-0,0094;-0,0077;56,35353861;37,51076682;0,00000000;
16:14:28:416;0,0061;-0,0094;-0,0077;56,35353861;37,51076682;0,00000000;
16:14:28:417;0,0208;0,0065;-0,0147;56,35353861;37,51076682;0,00000000;
16:14:28:476;0,0208;0,0065;-0,0147;56,35353861;37,51076682;0,00000000;
16:14:28:477;0,0208;0,0065;-0,0147;56,35353861;37,51076682;0,00000000;
16:14:28:479;-0,0243;0,0261;0,0008;56,35353861;37,51076682;0,00000000;
16:14:28:557;-0,0243;0,0261;0,0008;56,35353861;37,51076682;0,00000000;
16:14:28:559;-0,0243;0,0261;0,0008;56,35353861;37,51076682;0,00000000;
16:14:28:560;-0,0126;-0,0143;0,0152;56,35353861;37,51076682;0,00000000;
16:14:28:616;-0,0126;-0,0143;0,0152;56,35353861;37,51076682;0,00000000;
16:14:28:620;-0,0126;-0,0143;0,0152;56,35353861;37,51076682;0,00000000;
16:14:28:621;0,0251;-0,0081;0,0025;56,35353861;37,51076682;0,00000000;
16:14:28:676;0,0251;-0,0081;0,0025;56,35353861;37,51076682;0,00000000;
16:14:28:678;0,0251;-0,0081;0,0025;56,35353861;37,51076682;0,00000000;
16:14:28:679;0,0117;-0,0051;-0,0130;56,35353861;37,51076682;0,00000000;
16:14:28:737;0,0117;-0,0051;-0,0130;56,35353861;37,51076682;0,00000000;
16:14:28:739;0,0117;-0,0051;-0,0130;56,35353861;37,51076682;0,00000000;
16:14:28:741;-0,0360;0,0137;-0,0247;56,35353861;37,51076682;0,00000000;
16:14:28:821;-0,0360;0,0137;-0,0247;56,35353861;37,51076682;0,00000000;
16:14:28:822;-0,0360;0,0137;-0,0247;56,35353861;37,51076682;0,00000000;
16:14:28:824;-0,0192;0,0045;0,0366;56,35353861;37,51076682;0,00000000;
16:14:28:877;-0,0192;0,0045;0,0366;56,35353861;37,51076682;0,00000000;
16:14:28:879;-0,0192;0,0045;0,0366;56,35353861;37,51076682;0,00000000;
16:14:28:881;0,0273;-0,0040;-0,0008;56,35353861;37,51076682;0,00000000;
16:14:28:940;0,0273;-0,0040;-0,0008;56,35353861;37,51076682;0,00000000;
16:14:28:942;0,0273;-0,0040;-0,0008;56,35353861;37,51076682;0,00000000;
16:14:28:944;-0,0010;0,0054;-0,0404;56,35353861;37,51076682;0,00000000;
16:14:28:999;-0,0010;0,0054;-0,0404;56,35353861;37,51076682;0,00000000;
16:14:29:002;-0,0010;0,0054;-0,0404;56,35353861;37,51076682;0,00000000;
16:14:29:003;-0,0264;-0,0125;-0,0189;56,35353861;37,51076682;0,00000000;
16:14:29:023;-0,0264;-0,0125;-0,0189;56,35353861;37,51076682;0,00000000;
16:14:29:024;-0,0264;-0,0125;-0,0189;56,35353861;37,51076682;0,00000000;
16:14:29:025;0,0155;-0,0064;0,0399;56,35353861;37,51076682;0,00000000;
16:14:29:079;0,0155;-0,0064;0,0399;56,35353861;37,51076682;0,00000000;
16:14:29:080;0,0155;-0,0064;0,0399;56,35353861;37,51076682;0,00000000;
16:14:29:081;0,0222;0,0313;0,0071;56,35353861;37,51076682;0,00000000;
16:14:29:141;0,0222;0,0313;0,0071;56,35353861;37,51076682;0,00000000;
16:14:29:142;0,0222;0,0313;0,0071;56,35353861;37,51076682;0,00000000;
16:14:29:143;-0,0219;0,0125;-0,0571;56,35353861;37,51076682;0,00000000;
16:14:29:199;-0,0219;0,0125;-0,0571;56,35353861;37,51076682;0,00000000;
16:14:29:200;-0,0219;0,0125;-0,0571;56,35354761;37,51076426;0,00000000;
16:14:29:202;-0,0081;-0,0311;-0,0043;56,35354761;37,51076426;0,00000000;
16:14:29:260;-0,0081;-0,0311;-0,0043;56,35354761;37,51076426;0,00000000;
16:14:29:261;-0,0081;-0,0311;-0,0043;56,35354761;37,51076426;0,00000000;
16:14:29:262;0,0054;0,0138;0,0213;56,35354761;37,51076426;0,00000000;
16:14:29:340;0,0054;0,0138;0,0213;56,35354761;37,51076426;0,00000000;
16:14:29:342;0,0054;0,0138;0,0213;56,35354761;37,51076426;0,00000000;
16:14:29:343;-0,0074;0,0135;-0,0144;56,35354761;37,51076426;0,00000000;
16:14:29:402;-0,0074;0,0135;-0,0144;56,35354761;37,51076426;0,00000000;
16:14:29:405;-0,0074;0,0135;-0,0144;56,35354761;37,51076426;0,00000000;
16:14:29:407;-0,0158;-0,0191;-0,0429;56,35354761;37,51076426;0,00000000;
16:14:29:463;-0,0158;-0,0191;-0,0429;56,35354761;37,51076426;0,00000000;
16:14:29:465;-0,0158;-0,0191;-0,0429;56,35354761;37,51076426;0,00000000;
16:14:29:467;0,0196;0,0181;0,0058;56,35354761;37,51076426;0,00000000;
16:14:29:522;0,0196;0,0181;0,0058;56,35354761;37,51076426;0,00000000;
16:14:29:524;0,0196;0,0181;0,0058;56,35354761;37,51076426;0,00000000;
16:14:29:526;0,0167;0,0151;-0,0126;56,35354761;37,51076426;0,00000000;
16:14:29:601;0,0167;0,0151;-0,0126;56,35354761;37,51076426;0,00000000;
16:14:29:603;0,0167;0,0151;-0,0126;56,35354761;37,51076426;0,00000000;
16:14:29:604;-0,0268;-0,0171;-0,0381;56,35354761;37,51076426;0,00000000;
16:14:29:626;-0,0268;-0,0171;-0,0381;56,35354761;37,51076426;0,00000000;
16:14:29:627;-0,0268;-0,0171;-0,0381;56,35354761;37,51076426;0,00000000;
16:14:29:629;-0,0145;-0,0199;0,0254;56,35354761;37,51076426;0,00000000;
16:14:29:683;-0,0145;-0,0199;0,0254;56,35354761;37,51076426;0,00000000;
16:14:29:686;-0,0145;-0,0199;0,0254;56,35354761;37,51076426;0,00000000;
16:14:29:689;0,0217;0,0236;0,0002;56,35354761;37,51076426;0,00000000;
16:14:29:742;0,0217;0,0236;0,0002;56,35354761;37,51076426;0,00000000;
16:14:29:744;-0,0073;0,0084;-0,0410;56,35354761;37,51076426;0,00000000;
16:14:29:745;-0,0073;0,0084;-0,0410;56,35354761;37,51076426;0,00000000;
16:14:29:803;-0,0073;0,0084;-0,0410;56,35354761;37,51076426;0,00000000;
16:14:29:809;-0,0073;0,0084;-0,0410;56,35354761;37,51076426;0,00000000;
16:14:29:811;-0,0198;-0,0235;-0,0293;56,35354761;37,51076426;0,00000000;
16:14:29:863;-0,0198;-0,0235;-0,0293;56,35354761;37,51076426;0,00000000;
16:14:29:865;-0,0198;-0,0235;-0,0293;56,35354761;37,51076426;0,00000000;
16:14:29:866;0,0198;-0,0067;0,0395;56,35354761;37,51076426;0,00000000;
16:14:29:924;0,0198;-0,0067;0,0395;56,35354761;37,51076426;0,00000000;
16:14:29:926;0,0198;-0,0067;0,0395;56,35354761;37,51076426;0,00000000;
16:14:29:928;0,0214;0,0165;0,0089;56,35354761;37,51076426;0,00000000;
16:14:29:986;0,0214;0,0165;0,0089;56,35354761;37,51076426;0,00000000;
16:14:29:989;-0,0266;0,0036;-0,0290;56,35354761;37,51076426;0,00000000;
16:14:29:992;-0,0266;0,0036;-0,0290;56,35354761;37,51076426;0,00000000;
16:14:30:045;-0,0266;0,0036;-0,0290;56,35354761;37,51076426;0,00000000;
16:14:30:049;-0,0266;0,0036;-0,0290;56,35354761;37,51076426;0,00000000;
16:14:30:051;-0,0008;-0,0135;-0,0240;56,35354761;37,51076426;0,00000000;
16:14:30:125;-0,0008;-0,0135;-0,0240;56,35354761;37,51076426;0,00000000;
16:14:30:127;-0,0008;-0,0135;-0,0240;56,35354761;37,51076426;0,00000000;
16:14:30:128;0,0232;0,0111;-0,0036;56,35354761;37,51076426;0,00000000;
16:14:30:195;0,0232;0,0111;-0,0036;56,35354761;37,51076426;0,00000000;
16:14:30:197;0,0232;0,0111;-0,0036;56,35354761;37,51076426;0,00000000;
16:14:30:199;-0,0067;0,0012;0,0121;56,35354761;37,51076426;0,00000000;
16:14:30:256;-0,0067;0,0012;0,0121;56,35354761;37,51076426;0,00000000;
16:14:30:258;-0,0067;0,0012;0,0121;56,35354761;37,51076426;0,00000000;
16:14:30:260;-0,0338;-0,0099;-0,0148;56,35354761;37,51076426;0,00000000;
16:14:30:317;-0,0338;-0,0099;-0,0148;56,35354761;37,51076426;0,00000000;
16:14:30:319;-0,0338;-0,0099;-0,0148;56,35354761;37,51076426;0,00000000;
16:14:30:321;0,0228;0,0028;-0,0202;56,35354761;37,51076426;0,00000000;
16:14:30:388;0,0228;0,0028;-0,0202;56,35354761;37,51076426;0,00000000;
16:14:30:392;0,0228;0,0028;-0,0202;56,35354761;37,51076426;0,00000000;
16:14:30:394;0,0188;0,0117;-0,0166;56,35354761;37,51076426;0,00000000;
16:14:30:449;0,0188;0,0117;-0,0166;56,35354761;37,51076426;0,00000000;
16:14:30:452;0,0188;0,0117;-0,0166;56,35354761;37,51076426;0,00000000;
16:14:30:453;-0,0124;0,0012;0,0034;56,35354761;37,51076426;0,00000000;
16:14:30:509;-0,0124;0,0012;0,0034;56,35354761;37,51076426;0,00000000;
16:14:30:512;-0,0124;0,0012;0,0034;56,35354761;37,51076426;0,00000000;
16:14:30:514;-0,0143;-0,0201;0,0094;56,35354761;37,51076426;0,00000000;
16:14:30:570;-0,0143;-0,0201;0,0094;56,35354761;37,51076426;0,00000000;
16:14:30:573;-0,0143;-0,0201;0,0094;56,35354761;37,51076426;0,00000000;
16:14:30:575;0,0347;0,0026;-0,0130;56,35354761;37,51076426;0,00000000;
16:14:30:600;0,0096;0,0134;-0,0126;56,35354761;37,51076426;0,00000000;
16:14:30:605;0,0096;0,0134;-0,0126;56,35354761;37,51076426;0,00000000;
16:14:30:608;0,0096;0,0134;-0,0126;56,35354761;37,51076426;0,00000000;
16:14:30:649;0,0096;0,0134;-0,0126;56,35354761;37,51076426;0,00000000;
16:14:30:653;0,0096;0,0134;-0,0126;56,35354761;37,51076426;0,00000000;
16:14:30:655;-0,0257;-0,0121;-0,0069;56,35354761;37,51076426;0,00000000;
16:14:30:710;-0,0257;-0,0121;-0,0069;56,35354761;37,51076426;0,00000000;
16:14:30:712;-0,0257;-0,0121;-0,0069;56,35354761;37,51076426;0,00000000;
16:14:30:715;-0,0031;-0,0160;0,0042;56,35354761;37,51076426;0,00000000;
16:14:30:770;-0,0031;-0,0160;0,0042;56,35354761;37,51076426;0,00000000;
16:14:30:773;-0,0031;-0,0160;0,0042;56,35354761;37,51076426;0,00000000;
16:14:30:775;0,0367;-0,0025;0,0097;56,35354761;37,51076426;0,00000000;
16:14:30:831;-0,0039;0,0045;0,0087;56,35354761;37,51076426;0,00000000;
16:14:30:834;-0,0039;0,0045;0,0087;56,35354761;37,51076426;0,00000000;
16:14:30:836;-0,0039;0,0045;0,0087;56,35354761;37,51076426;0,00000000;
16:14:30:912;-0,0319;-0,0118;-0,0115;56,35354761;37,51076426;0,00000000;
16:14:30:916;-0,0319;-0,0118;-0,0115;56,35354761;37,51076426;0,00000000;
16:14:30:918;-0,0319;-0,0118;-0,0115;56,35354761;37,51076426;0,00000000;
16:14:30:971;-0,0319;-0,0118;-0,0115;56,35354761;37,51076426;0,00000000;
16:14:30:974;-0,0319;-0,0118;-0,0115;56,35354761;37,51076426;0,00000000;
16:14:30:976;0,0086;-0,0021;0,0093;56,35354761;37,51076426;0,00000000;
16:14:31:032;0,0086;-0,0021;0,0093;56,35354761;37,51076426;0,00000000;
16:14:31:035;0,0086;-0,0021;0,0093;56,35354761;37,51076426;0,00000000;
16:14:31:037;0,0269;-0,0140;0,0079;56,35354761;37,51076426;0,00000000;
16:14:31:091;0,0269;-0,0140;0,0079;56,35354761;37,51076426;0,00000000;
16:14:31:095;0,0269;-0,0140;0,0079;56,35354761;37,51076426;0,00000000;
16:14:31:097;-0,0232;-0,0036;-0,0025;56,35354761;37,51076426;0,00000000;
16:14:31:154;-0,0232;-0,0036;-0,0025;56,35354761;37,51076426;0,00000000;
16:14:31:156;-0,0232;-0,0036;-0,0025;56,35354761;37,51076426;0,00000000;
16:14:31:158;-0,0141;-0,0073;0,0038;56,35354761;37,51076426;0,00000000;
16:14:31:211;-0,0141;-0,0073;0,0038;56,35354761;37,51076426;0,00000000;
16:14:31:214;-0,0141;-0,0073;0,0038;56,35354761;37,51076426;0,00000000;
16:14:31:215;0,0142;-0,0109;-0,0016;56,35354761;37,51076426;0,00000000;
16:14:31:272;0,0142;-0,0109;-0,0016;56,35354761;37,51076426;0,00000000;
16:14:31:275;0,0142;-0,0109;-0,0016;56,35354761;37,51076426;0,00000000;
16:14:31:277;0,0194;0,0085;0,0078;56,35354761;37,51076426;0,00000000;
16:14:31:332;0,0194;0,0085;0,0078;56,35354761;37,51076426;0,00000000;
16:14:31:335;0,0194;0,0085;0,0078;56,35354761;37,51076426;0,00000000;
16:14:31:336;-0,0329;-0,0062;-0,0175;56,35354761;37,51076426;0,00000000;
16:14:31:369;-0,0290;-0,0060;-0,0156;56,35354761;37,51076426;0,00000000;
16:14:31:374;-0,0290;-0,0060;-0,0156;56,35354761;37,51076426;0,00000000;
16:14:31:424;0,0131;-0,0261;0,0159;56,35354761;37,51076426;0,00000000;
16:14:31:432;0,0131;-0,0261;0,0159;56,35354761;37,51076426;0,00000000;
16:14:31:434;0,0131;-0,0261;0,0159;56,35354761;37,51076426;0,00000000;
16:14:31:484;0,0131;-0,0261;0,0159;56,35354761;37,51076426;0,00000000;
16:14:31:490;0,0131;-0,0261;0,0159;56,35354761;37,51076426;0,00000000;
16:14:31:492;0,0318;0,0157;0,0333;56,35354761;37,51076426;0,00000000;
16:14:31:544;0,0318;0,0157;0,0333;56,35354761;37,51076426;0,00000000;
16:14:31:547;0,0318;0,0157;0,0333;56,35354761;37,51076426;0,00000000;
16:14:31:549;-0,0015;0,0157;0,0052;56,35354761;37,51076426;0,00000000;
16:14:31:604;-0,0015;0,0157;0,0052;56,35354761;37,51076426;0,00000000;
16:14:31:606;-0,0015;0,0157;0,0052;56,35354761;37,51076426;0,00000000;
16:14:31:608;-0,0185;-0,0130;-0,0209;56,35354761;37,51076426;0,00000000;
16:14:31:629;-0,0185;-0,0130;-0,0209;56,35354761;37,51076426;0,00000000;
16:14:31:663;-0,0185;-0,0130;-0,0209;56,35354761;37,51076426;0,00000000;
16:14:31:665;0,0068;-0,0059;0,0257;56,35354761;37,51076426;0,00000000;
16:14:31:725;0,0068;-0,0059;0,0257;56,35354761;37,51076426;0,00000000;
16:14:31:728;0,0068;-0,0059;0,0257;56,35354761;37,51076426;0,00000000;
16:14:31:730;0,0274;0,0147;0,0232;56,35354761;37,51076426;0,00000000;
16:14:31:786;0,0274;0,0147;0,0232;56,35354761;37,51076426;0,00000000;
16:14:31:789;0,0274;0,0147;0,0232;56,35354761;37,51076426;0,00000000;
16:14:31:790;-0,0114;0,0064;0,0050;56,35354761;37,51076426;0,00000000;
16:14:31:846;-0,0114;0,0064;0,0050;56,35354761;37,51076426;0,00000000;
16:14:31:850;-0,0114;0,0064;0,0050;56,35354761;37,51076426;0,00000000;
16:14:31:852;-0,0015;-0,0095;-0,0080;56,35354761;37,51076426;0,00000000;
16:14:31:893;-0,0015;-0,0095;-0,0080;56,35354761;37,51076426;0,00000000;
16:14:31:946;-0,0015;-0,0095;-0,0080;56,35354761;37,51076426;0,00000000;
16:14:31:950;0,0176;0,0089;0,0206;56,35354761;37,51076426;0,00000000;
16:14:31:952;0,0176;0,0089;0,0206;56,35354761;37,51076426;0,00000000;
16:14:32:007;0,0176;0,0089;0,0206;56,35354761;37,51076426;0,00000000;
16:14:32:010;0,0176;0,0089;0,0206;56,35354761;37,51076426;0,00000000;
16:14:32:013;-0,0128;0,0020;-0,0093;56,35354761;37,51076426;0,00000000;
16:14:32:067;-0,0128;0,0020;-0,0093;56,35354761;37,51076426;0,00000000;
16:14:32:071;-0,0128;0,0020;-0,0093;56,35354761;37,51076426;0,00000000;
16:14:32:073;0,0102;-0,0108;0,0002;56,35354761;37,51076426;0,00000000;
16:14:32:128;0,0102;-0,0108;0,0002;56,35354761;37,51076426;0,00000000;
16:14:32:131;0,0102;-0,0108;0,0002;56,35354761;37,51076426;0,00000000;
16:14:32:133;0,0313;0,0144;0,0140;56,35354761;37,51076426;0,00000000;
16:14:32:155;0,0313;0,0144;0,0140;56,35354761;37,51076426;0,00000000;
16:14:32:160;0,0282;0,0121;0,0125;56,35354761;37,51076426;0,00000000;
16:14:32:209;0,0282;0,0121;0,0125;56,35354761;37,51076426;0,00000000;
16:14:32:212;0,0282;0,0121;0,0125;56,35354761;37,51076426;0,00000000;
16:14:32:213;-0,0208;-0,0005;0,0203;56,35354761;37,51076426;0,00000000;
16:14:32:268;-0,0208;-0,0005;0,0203;56,35354761;37,51076426;0,00000000;
16:14:32:271;-0,0208;-0,0005;0,0203;56,35355446;37,51074784;0,00000000;
16:14:32:274;-0,0224;-0,0197;-0,0004;56,35355446;37,51074784;0,00000000;
16:14:32:327;-0,0224;-0,0197;-0,0004;56,35355446;37,51074784;0,00000000;
16:14:32:329;-0,0224;-0,0197;-0,0004;56,35355446;37,51074784;0,00000000;
16:14:32:331;0,0131;0,0089;0,0053;56,35355446;37,51074784;0,00000000;
16:14:32:389;0,0131;0,0089;0,0053;56,35355446;37,51074784;0,00000000;
16:14:32:392;0,0131;0,0089;0,0053;56,35355446;37,51074784;0,00000000;
16:14:32:395;0,0206;0,0081;0,0224;56,35355446;37,51074784;0,00000000;
16:14:32:417;0,0206;0,0081;0,0224;56,35355446;37,51074784;0,00000000;
16:14:32:469;0,0206;0,0081;0,0224;56,35355446;37,51074784;0,00000000;
16:14:32:472;0,0206;0,0081;0,0224;56,35355446;37,51074784;0,00000000;
16:14:32:474;-0,0054;-0,0158;-0,0013;56,35355446;37,51074784;0,00000000;
16:14:32:529;-0,0054;-0,0158;-0,0013;56,35355446;37,51074784;0,00000000;
16:14:32:533;-0,0054;-0,0158;-0,0013;56,35355446;37,51074784;0,00000000;
16:14:32:535;0,0203;-0,0057;-0,0118;56,35355446;37,51074784;0,00000000;
16:14:32:590;0,0203;-0,0057;-0,0118;56,35355446;37,51074784;0,00000000;
16:14:32:593;0,0203;-0,0057;-0,0118;56,35355446;37,51074784;0,00000000;
16:14:32:595;-0,0071;0,0144;0,0086;56,35355446;37,51074784;0,00000000;
16:14:32:651;-0,0071;0,0144;0,0086;56,35355446;37,51074784;0,00000000;
16:14:32:654;-0,0071;0,0144;0,0086;56,35355446;37,51074784;0,00000000;
16:14:32:656;-0,0258;-0,0077;0,0222;56,35355446;37,51074784;0,00000000;
16:14:32:731;-0,0258;-0,0077;0,0222;56,35355446;37,51074784;0,00000000;
16:14:32:734;-0,0258;-0,0077;0,0222;56,35355446;37,51074784;0,00000000;
16:14:32:736;0,0077;-0,0145;0,0048;56,35355446;37,51074784;0,00000000;
16:14:32:791;0,0077;-0,0145;0,0048;56,35355446;37,51074784;0,00000000;
16:14:32:795;0,0317;0,0174;-0,0287;56,35355446;37,51074784;0,00000000;
16:14:32:797;0,0317;0,0174;-0,0287;56,35355446;37,51074784;0,00000000;
16:14:32:851;0,0317;0,0174;-0,0287;56,35355446;37,51074784;0,00000000;
16:14:32:854;-0,0348;0,0066;-0,0138;56,35355446;37,51074784;0,00000000;
16:14:32:856;-0,0348;0,0066;-0,0138;56,35355446;37,51074784;0,00000000;
16:14:32:912;-0,0348;0,0066;-0,0138;56,35355446;37,51074784;0,00000000;
16:14:32:915;-0,0348;0,0066;-0,0138;56,35355446;37,51074784;0,00000000;
16:14:32:917;-0,0299;-0,0265;0,0349;56,35355446;37,51074784;0,00000000;
16:14:32:940;-0,0269;-0,0233;0,0310;56,35355446;37,51074784;0,00000000;
16:14:32:945;-0,0269;-0,0233;0,0310;56,35355446;37,51074784;0,00000000;
16:14:32:992;-0,0269;-0,0233;0,0310;56,35355446;37,51074784;0,00000000;
16:14:32:996;-0,0269;-0,0233;0,0310;56,35355446;37,51074784;0,00000000;
16:14:32:999;0,0266;0,0109;0,0066;56,35355446;37,51074784;0,00000000;
16:14:33:052;0,0266;0,0109;0,0066;56,35355446;37,51074784;0,00000000;
16:14:33:054;0,0266;0,0109;0,0066;56,35355446;37,51074784;0,00000000;
16:14:33:056;0,0183;0,0143;-0,0196;56,35355446;37,51074784;0,00000000;
16:14:33:112;0,0183;0,0143;-0,0196;56,35355446;37,51074784;0,00000000;
16:14:33:115;0,0183;0,0143;-0,0196;56,35355446;37,51074784;0,00000000;
16:14:33:117;-0,0218;-0,0067;-0,0280;56,35355446;37,51074784;0,00000000;
16:14:33:171;-0,0218;-0,0067;-0,0280;56,35355446;37,51074784;0,00000000;
16:14:33:174;-0,0218;-0,0067;-0,0280;56,35355446;37,51074784;0,00000000;
16:14:33:177;-0,0076;-0,0064;0,0275;56,35355446;37,51074784;0,00000000;
16:14:33:199;-0,0076;-0,0064;0,0275;56,35355446;37,51074784;0,00000000;
16:14:33:251;-0,0076;-0,0064;0,0275;56,35355446;37,51074784;0,00000000;
16:14:33:253;-0,0076;-0,0064;0,0275;56,35355446;37,51074784;0,00000000;
16:14:33:254;-0,0063;0,0022;-0,0017;56,35355446;37,51074784;0,00000000;
16:14:33:311;-0,0063;0,0022;-0,0017;56,35355446;37,51074784;0,00000000;
16:14:33:314;-0,0063;0,0022;-0,0017;56,35355446;37,51074784;0,00000000;
16:14:33:316;-0,0085;-0,0045;0,0173;56,35355446;37,51074784;0,00000000;
16:14:33:374;-0,0085;-0,0045;0,0173;56,35355446;37,51074784;0,00000000;
16:14:33:376;-0,0085;-0,0045;0,0173;56,35355446;37,51074784;0,00000000;
16:14:33:377;0,0244;0,0056;0,0061;56,35355446;37,51074784;0,00000000;
16:14:33:432;0,0244;0,0056;0,0061;56,35355446;37,51074784;0,00000000;
16:14:33:433;0,0244;0,0056;0,0061;56,35355446;37,51074784;0,00000000;
16:14:33:434;0,0255;0,0049;-0,0098;56,35355446;37,51074784;0,00000000;
16:14:33:513;0,0255;0,0049;-0,0098;56,35355446;37,51074784;0,00000000;
16:14:33:515;0,0255;0,0049;-0,0098;56,35355446;37,51074784;0,00000000;
16:14:33:516;-0,0223;-0,0069;0,0005;56,35355446;37,51074784;0,00000000;
16:14:33:576;-0,0223;-0,0069;0,0005;56,35355446;37,51074784;0,00000000;
16:14:33:579;-0,0042;-0,0098;0,0224;56,35355446;37,51074784;0,00000000;
16:14:33:582;-0,0042;-0,0098;0,0224;56,35355446;37,51074784;0,00000000;
16:14:33:635;-0,0042;-0,0098;0,0224;56,35355446;37,51074784;0,00000000;
16:14:33:639;-0,0042;-0,0098;0,0224;56,35355446;37,51074784;0,00000000;
16:14:33:642;0,0292;0,0065;-0,0187;56,35355446;37,51074784;0,00000000;
16:14:33:696;0,0292;0,0065;-0,0187;56,35355446;37,51074784;0,00000000;
16:14:33:699;0,0292;0,0065;-0,0187;56,35355446;37,51074784;0,00000000;
16:14:33:702;-0,0081;0,0039;-0,0038;56,35355446;37,51074784;0,00000000;
16:14:33:723;-0,0067;0,0038;-0,0034;56,35355446;37,51074784;0,00000000;
16:14:33:727;-0,0067;0,0038;-0,0034;56,35355446;37,51074784;0,00000000;
16:14:33:776;-0,0067;0,0038;-0,0034;56,35355446;37,51074784;0,00000000;
16:14:33:780;-0,0067;0,0038;-0,0034;56,35355446;37,51074784;0,00000000;
16:14:33:782;-0,0172;-0,0102;0,0051;56,35355446;37,51074784;0,00000000;
16:14:33:834;-0,0172;-0,0102;0,0051;56,35355446;37,51074784;0,00000000;
16:14:33:836;-0,0172;-0,0102;0,0051;56,35355446;37,51074784;0,00000000;
16:14:33:838;0,0243;-0,0001;0,0113;56,35355446;37,51074784;0,00000000;
16:14:33:898;0,0243;-0,0001;0,0113;56,35355446;37,51074784;0,00000000;
16:14:33:904;0,0243;-0,0001;0,0113;56,35355446;37,51074784;0,00000000;
16:14:33:906;0,0161;-0,0046;0,0161;56,35355446;37,51074784;0,00000000;
16:14:33:956;0,0161;-0,0046;0,0161;56,35355446;37,51074784;0,00000000;
16:14:33:959;0,0161;-0,0046;0,0161;56,35355446;37,51074784;0,00000000;
16:14:33:964;-0,0246;0,0084;0,0083;56,35355446;37,51074784;0,00000000;
16:14:33:986;-0,0246;0,0084;0,0083;56,35355446;37,51074784;0,00000000;
16:14:34:038;-0,0246;0,0084;0,0083;56,35355446;37,51074784;0,00000000;
16:14:34:041;0,0324;-0,0057;-0,0136;56,35355446;37,51074784;0,00000000;
16:14:34:043;0,0324;-0,0057;-0,0136;56,35355446;37,51074784;0,00000000;
16:14:34:097;0,0324;-0,0057;-0,0136;56,35355446;37,51074784;0,00000000;
16:14:34:099;0,0324;-0,0057;-0,0136;56,35355446;37,51074784;0,00000000;
16:14:34:101;0,0119;0,0143;0,0206;56,35355446;37,51074784;0,00000000;
16:14:34:160;0,0119;0,0143;0,0206;56,35355446;37,51074784;0,00000000;
16:14:34:166;0,0119;0,0143;0,0206;56,35355446;37,51074784;0,00000000;
16:14:34:169;-0,0232;-0,0041;-0,0087;56,35355446;37,51074784;0,00000000;
16:14:34:218;-0,0232;-0,0041;-0,0087;56,35355446;37,51074784;0,00000000;
16:14:34:220;0,0144;-0,0199;-0,0067;56,35355446;37,51074784;0,00000000;
16:14:34:222;0,0144;-0,0199;-0,0067;56,35355446;37,51074784;0,00000000;
16:14:34:299;0,0144;-0,0199;-0,0067;56,35355446;37,51074784;0,00000000;
16:14:34:301;0,0144;-0,0199;-0,0067;56,35355446;37,51074784;0,00000000;
16:14:34:303;0,0122;0,0087;0,0104;56,35355446;37,51074784;0,00000000;
16:14:34:359;0,0122;0,0087;0,0104;56,35355446;37,51074784;0,00000000;
16:14:34:362;0,0122;0,0087;0,0104;56,35355446;37,51074784;0,00000000;
16:14:34:365;-0,0260;0,0214;-0,0014;56,35355446;37,51074784;0,00000000;
16:14:34:420;-0,0260;0,0214;-0,0014;56,35355446;37,51074784;0,00000000;
16:14:34:424;-0,0260;0,0214;-0,0014;56,35355446;37,51074784;0,00000000;
16:14:34:427;-0,0091;-0,0121;0,0020;56,35355446;37,51074784;0,00000000;
16:14:34:480;-0,0091;-0,0121;0,0020;56,35355446;37,51074784;0,00000000;
16:14:34:481;-0,0091;-0,0121;0,0020;56,35355446;37,51074784;0,00000000;
16:14:34:483;0,0295;-0,0054;-0,0004;56,35355446;37,51074784;0,00000000;
16:14:34:508;0,0295;-0,0054;-0,0004;56,35355446;37,51074784;0,00000000;
