
time;ax;ay;az;Latitude;Longitude;Speed (m/s);
16:01:02:651;0,0000;0,0000;0,0000;0,00000000;0,00000000;0,00000000;
16:01:02:652;0,0000;0,0000;0,0000;56,37850574;37,32545690;0,27000001;
16:01:02:653;0,0000;0,0000;0,0000;56,37850574;37,32545690;0,27000001;
16:01:02:699;0,0000;0,0000;0,0000;56,37850574;37,32545690;0,27000001;
16:01:02:806;0,0000;0,0000;0,0000;56,37850574;37,32545690;0,27000001;
16:01:02:808;0,0000;0,0000;0,0000;56,37850574;37,32545690;0,27000001;
16:01:02:867;0,0000;0,0000;0,0000;56,37850574;37,32545690;0,27000001;
16:01:02:869;0,0000;0,0000;-0,0000;56,37850574;37,32545690;0,27000001;
16:01:02:871;0,0000;0,0000;-0,0000;56,37850574;37,32545690;0,27000001;
16:01:02:926;0,0000;0,0000;-0,0000;56,37850574;37,32545690;0,27000001;
16:01:02:928;0,1148;0,0020;-0,0311;56,37850574;37,32545690;0,27000001;
16:01:02:930;0,1148;0,0020;-0,0311;56,37850574;37,32545690;0,27000001;
16:01:02:958;0,1148;0,0020;-0,0311;56,37850574;37,32545690;0,27000001;
16:01:02:960;0,1818;-0,0733;0,1357;56,37850574;37,32545690;0,27000001;
16:01:03:017;0,1818;-0,0733;0,1357;56,37850574;37,32545690;0,27000001;
16:01:03:018;0,1818;-0,0733;0,1357;56,37850574;37,32545690;0,27000001;
16:01:03:020;-0,3811;-0,3184;-0,1326;56,37850574;37,32545690;0,27000001;
16:01:03:079;-0,3811;-0,3184;-0,1326;56,37850574;37,32545690;0,27000001;
16:01:03:081;-0,3811;-0,3184;-0,1326;56,37850574;37,32545690;0,27000001;
16:01:03:083;0,1528;-0,0835;-0,3483;56,37850574;37,32545690;0,27000001;
16:01:03:140;0,1528;-0,0835;-0,3483;56,37850574;37,32545690;0,27000001;
16:01:03:144;0,1528;-0,0835;-0,3483;56,37850574;37,32545690;0,27000001;
16:01:03:150;0,0527;-0,0156;0,1349;56,37850574;37,32545690;0,27000001;
16:01:03:199;0,0527;-0,0156;0,1349;56,37850574;37,32545690;0,27000001;
16:01:03:201;0,0527;-0,0156;0,1349;56,37850574;37,32545690;0,27000001;
16:01:03:202;0,7407;0,0720;0,3901;56,37850574;37,32545690;0,27000001;
16:01:03:220;0,7407;0,0720;0,3901;56,37850574;37,32545690;0,27000001;
16:01:03:278;0,7407;0,0720;0,3901;56,37850574;37,32545690;0,27000001;
16:01:03:279;0,7407;0,0720;0,3901;56,37850574;37,32545690;0,27000001;
16:01:03:280;0,3476;0,0544;-0,6487;56,37850574;37,32545690;0,27000001;
16:01:03:340;0,3476;0,0544;-0,6487;56,37850574;37,32545690;0,27000001;
16:01:03:341;0,3476;0,0544;-0,6487;56,37850574;37,32545690;0,27000001;
16:01:03:342;0,3513;0,1331;-1,1762;56,37850574;37,32545690;0,27000001;
16:01:03:399;0,3513;0,1331;-1,1762;56,37850574;37,32545690;0,27000001;
16:01:03:400;0,3513;0,1331;-1,1762;56,37850574;37,32545690;0,27000001;
16:01:03:401;1,2563;0,4295;-2,0173;56,37850574;37,32545690;0,27000001;
16:01:03:460;1,2563;0,4295;-2,0173;56,37850574;37,32545690;0,27000001;
16:01:03:462;1,2563;0,4295;-2,0173;56,37850574;37,32545690;0,27000001;
16:01:03:463;0,9333;0,5813;2,0470;56,37850574;37,32545690;0,27000001;
16:01:03:541;0,7208;0,6047;-0,7239;56,37850574;37,32545690;0,27000001;
16:01:03:544;0,7208;0,6047;-0,7239;56,37850574;37,32545690;0,27000001;
16:01:03:546;0,7208;0,6047;-0,7239;56,37850574;37,32545690;0,27000001;
16:01:03:602;0,7208;0,6047;-0,7239;56,37850574;37,32545690;0,27000001;
16:01:03:604;0,7208;0,6047;-0,7239;56,37850574;37,32545690;0,27000001;
16:01:03:607;-0,3613;0,3734;0,2533;56,37850574;37,32545690;0,27000001;
16:01:03:661;-0,3613;0,3734;0,2533;56,37850574;37,32545690;0,27000001;
16:01:03:662;-0,3613;0,3734;0,2533;56,37850574;37,32545690;0,27000001;
16:01:03:663;0,1568;-0,0574;0,0302;56,37850574;37,32545690;0,27000001;
16:01:03:722;0,1568;-0,0574;0,0302;56,37850574;37,32545690;0,27000001;
16:01:03:725;0,1568;-0,0574;0,0302;56,37850574;37,32545690;0,27000001;
16:01:03:727;0,3596;-1,1618;0,2881;56,37850574;37,32545690;0,27000001;
16:01:03:747;0,5841;-1,2799;0,5311;56,37850574;37,32545690;0,27000001;
16:01:03:749;0,5841;-1,2799;0,5311;56,37850574;37,32545690;0,27000001;
16:01:03:801;0,5841;-1,2799;0,5311;56,37850574;37,32545690;0,27000001;
16:01:03:804;0,5841;-1,2799;0,5311;56,37850574;37,32545690;0,27000001;
16:01:03:806;0,8036;-0,9611;0,4563;56,37850574;37,32545690;0,27000001;
16:01:03:862;0,8036;-0,9611;0,4563;56,37850574;37,32545690;0,27000001;
16:01:03:863;0,1253;-0,8307;1,4398;56,37850574;37,32545690;0,27000001;
16:01:03:865;0,1253;-0,8307;1,4398;56,37850574;37,32545690;0,27000001;
16:01:03:922;0,1253;-0,8307;1,4398;56,37850574;37,32545690;0,27000001;
16:01:03:924;0,1253;-0,8307;1,4398;56,37850574;37,32545690;0,27000001;
16:01:03:926;-0,3510;-0,6633;1,9678;56,37850574;37,32545690;0,27000001;
16:01:03:985;-0,3510;-0,6633;1,9678;56,37850574;37,32545690;0,27000001;
16:01:03:987;-0,3510;-0,6633;1,9678;56,37850574;37,32545690;0,27000001;
16:01:03:989;-0,6591;-0,1040;0,7069;56,37850574;37,32545690;0,27000001;
16:01:04:006;-0,6591;-0,1040;0,7069;56,37850574;37,32545690;0,27000001;
16:01:04:064;-0,6591;-0,1040;0,7069;56,37850574;37,32545690;0,27000001;
16:01:04:066;0,5816;0,6097;0,4106;56,37850574;37,32545690;0,27000001;
16:01:04:069;0,5816;0,6097;0,4106;56,37850574;37,32545690;0,27000001;
16:01:04:124;0,5816;0,6097;0,4106;56,37850574;37,32545690;0,27000001;
16:01:04:127;0,5816;0,6097;0,4106;56,37850574;37,32545690;0,27000001;
16:01:04:128;-0,2373;0,2700;-0,2667;56,37850574;37,32545690;0,27000001;
16:01:04:185;-0,2373;0,2700;-0,2667;56,37850574;37,32545690;0,27000001;
16:01:04:187;-0,2373;0,2700;-0,2667;56,37850574;37,32545690;0,27000001;
16:01:04:190;3,8011;0,7629;-0,0521;56,37850574;37,32545690;0,27000001;
16:01:04:244;3,8011;0,7629;-0,0521;56,37850574;37,32545690;0,27000001;
16:01:04:246;3,8011;0,7629;-0,0521;56,37850574;37,32545690;0,27000001;
16:01:04:248;3,0130;-0,0165;1,4318;56,37850574;37,32545690;0,27000001;
16:01:04:325;3,0130;-0,0165;1,4318;56,37850574;37,32545690;0,27000001;
16:01:04:327;3,0130;-0,0165;1,4318;56,37850574;37,32545690;0,27000001;
16:01:04:328;1,4776;-0,8111;-0,6064;56,37850574;37,32545690;0,27000001;
16:01:04:385;1,4776;-0,8111;-0,6064;56,37850574;37,32545690;0,27000001;
16:01:04:388;1,4776;-0,8111;-0,6064;56,37850574;37,32545690;0,27000001;
16:01:04:390;1,1163;-1,4027;-2,5272;56,37850574;37,32545690;0,27000001;
16:01:04:445;1,1163;-1,4027;-2,5272;56,37850574;37,32545690;0,27000001;
16:01:04:447;1,1163;-1,4027;-2,5272;56,37850574;37,32545690;0,27000001;
16:01:04:448;-1,3714;-1,7486;-1,9245;56,37850574;37,32545690;0,27000001;
16:01:04:507;-1,3714;-1,7486;-1,9245;56,37850574;37,32545690;0,27000001;
16:01:04:510;-1,3714;-1,7486;-1,9245;56,37850574;37,32545690;0,27000001;
16:01:04:512;-2,8621;-1,3510;-0,9166;56,37850574;37,32545690;0,27000001;
16:01:04:527;-2,8621;-1,3510;-0,9166;56,37850574;37,32545690;0,27000001;
16:01:04:530;-2,7953;-0,6424;-1,3243;56,37850574;37,32545690;0,27000001;
16:01:04:587;-2,7953;-0,6424;-1,3243;56,37850574;37,32545690;0,27000001;
16:01:04:589;-2,7953;-0,6424;-1,3243;56,37850574;37,32545690;0,27000001;
16:01:04:592;-2,7783;0,0285;-1,0100;56,37850574;37,32545690;0,27000001;
16:01:04:647;-2,7234;0,4983;-0,1520;56,37850574;37,32545690;0,27000001;
16:01:04:649;-2,7234;0,4983;-0,1520;56,37850574;37,32545690;0,27000001;
16:01:04:650;-2,7234;0,4983;-0,1520;56,37850574;37,32545690;0,27000001;
16:01:04:707;-2,7234;0,4983;-0,1520;56,37850574;37,32545690;0,27000001;
16:01:04:708;-2,7234;0,4983;-0,1520;56,37850574;37,32545690;0,27000001;
16:01:04:710;-0,5089;0,9217;0,5444;56,37850574;37,32545690;0,27000001;
16:01:04:766;-0,5089;0,9217;0,5444;56,37850574;37,32545690;0,27000001;
16:01:04:768;-0,5089;0,9217;0,5444;56,37850574;37,32545690;0,27000001;
16:01:04:769;1,1506;1,5447;1,0844;56,37850574;37,32545690;0,27000001;
16:01:04:788;1,1506;1,5447;1,0844;56,37850574;37,32545690;0,27000001;
16:01:04:848;1,1506;1,5447;1,0844;56,37850574;37,32545690;0,27000001;
16:01:04:851;1,1506;1,5447;1,0844;56,37850574;37,32545690;0,27000001;
16:01:04:852;0,9146;0,1193;0,3577;56,37850574;37,32545690;0,27000001;
16:01:04:908;0,9146;0,1193;0,3577;56,37850574;37,32545690;0,27000001;
16:01:04:912;0,9146;0,1193;0,3577;56,37850574;37,32545690;0,27000001;
16:01:04:914;0,4052;-0,3542;1,4248;56,37850574;37,32545690;0,27000001;
16:01:04:967;0,4052;-0,3542;1,4248;56,37850574;37,32545690;0,27000001;
16:01:04:969;0,4052;-0,3542;1,4248;56,37850574;37,32545690;0,27000001;
16:01:04:970;-0,1509;-1,0614;0,8059;56,37850574;37,32545690;0,27000001;
16:01:05:029;-0,1509;-1,0614;0,8059;56,37850574;37,32545690;0,27000001;
16:01:05:032;-0,1509;-1,0614;0,8059;56,37850574;37,32545690;0,27000001;
16:01:05:034;0,4423;-0,8374;2,0120;56,37850574;37,32545690;0,27000001;
16:01:05:109;0,4423;-0,8374;2,0120;56,37850574;37,32545690;0,27000001;
16:01:05:112;0,4423;-0,8374;2,0120;56,37850574;37,32545690;0,27000001;
16:01:05:114;-0,8756;-0,7388;1,4107;56,37850574;37,32545690;0,27000001;
16:01:05:171;-0,8756;-0,7388;1,4107;56,37850574;37,32545690;0,27000001;
16:01:05:174;-0,8756;-0,7388;1,4107;56,37850574;37,32545690;0,27000001;
16:01:05:176;-0,6960;-0,4546;1,8969;56,37850574;37,32545690;0,27000001;
16:01:05:231;-0,6960;-0,4546;1,8969;56,37850574;37,32545690;0,27000001;
16:01:05:233;-0,6960;-0,4546;1,8969;56,37850574;37,32545690;0,27000001;
16:01:05:234;-0,9265;-0,3700;0,9464;56,37850574;37,32545690;0,27000001;
16:01:05:290;-0,9265;-0,3700;0,9464;56,37850574;37,32545690;0,27000001;
16:01:05:293;-0,9265;-0,3700;0,9464;56,37850574;37,32545690;0,27000001;
16:01:05:295;-1,2259;-0,4319;0,6293;56,37850574;37,32545690;0,27000001;
16:01:05:311;-1,2259;-0,4319;0,6293;56,37850574;37,32545690;0,27000001;
16:01:05:313;-1,2383;-0,2308;0,6241;56,37850574;37,32545690;0,27000001;
16:01:05:372;-1,2383;-0,2308;0,6241;56,37850574;37,32545690;0,27000001;
16:01:05:374;-1,2383;-0,2308;0,6241;56,37850574;37,32545690;0,27000001;
16:01:05:376;0,4989;-0,2292;-0,1254;56,37850574;37,32545690;0,27000001;
16:01:05:432;0,4989;-0,2292;-0,1254;56,37850574;37,32545690;0,27000001;
16:01:05:434;0,4989;-0,2292;-0,1254;56,37850574;37,32545690;0,27000001;
16:01:05:436;-0,0034;-0,0469;0,0774;56,37850574;37,32545690;0,27000001;
16:01:05:493;-0,0893;-0,3140;1,6567;56,37850574;37,32545690;0,27000001;
16:01:05:496;-0,0893;-0,3140;1,6567;56,37850574;37,32545690;0,27000001;
16:01:05:498;-0,0893;-0,3140;1,6567;56,37850574;37,32545690;0,27000001;
16:01:05:552;-0,0893;-0,3140;1,6567;56,37850574;37,32545690;0,27000001;
16:01:05:555;-0,0893;-0,3140;1,6567;56,37850574;37,32545690;0,27000001;
16:01:05:557;0,9659;-0,3951;0,6703;56,37850574;37,32545690;0,27000001;
16:01:05:574;0,9659;-0,3951;0,6703;56,37850574;37,32545690;0,27000001;
16:01:05:632;0,9659;-0,3951;0,6703;56,37850574;37,32545690;0,27000001;
16:01:05:634;0,9659;-0,3951;0,6703;56,37850574;37,32545690;0,27000001;
16:01:05:638;0,0163;-0,1924;0,4459;56,37850574;37,32545690;0,27000001;
16:01:05:692;0,0647;-0,5558;0,0400;56,37850574;37,32545690;0,27000001;
16:01:05:694;0,0647;-0,5558;0,0400;56,37850574;37,32545690;0,27000001;
16:01:05:696;0,0647;-0,5558;0,0400;56,37850574;37,32545690;0,27000001;
16:01:05:753;0,0647;-0,5558;0,0400;56,37850574;37,32545690;0,27000001;
16:01:05:757;0,0647;-0,5558;0,0400;56,37850574;37,32545690;0,27000001;
16:01:05:759;0,0248;-0,1219;0,3815;56,37850574;37,32545690;0,27000001;
16:01:05:812;0,0248;-0,1219;0,3815;56,37850574;37,32545690;0,27000001;
16:01:05:814;0,0248;-0,1219;0,3815;56,37850574;37,32545690;0,27000001;
16:01:05:815;0,1331;0,3179;0,4776;56,37850574;37,32545690;0,27000001;
16:01:05:895;0,1331;0,3179;0,4776;56,37850574;37,32545690;0,27000001;
16:01:05:897;0,1331;0,3179;0,4776;56,37850574;37,32545690;0,27000001;
16:01:05:902;0,1666;-0,0032;0,2444;56,37850574;37,32545690;0,27000001;
16:01:05:954;0,1666;-0,0032;0,2444;56,37850574;37,32545690;0,27000001;
16:01:05:957;0,1666;-0,0032;0,2444;56,37850574;37,32545690;0,27000001;
16:01:05:959;0,2434;-0,0519;-0,0621;56,37850574;37,32545690;0,27000001;
16:01:06:013;-0,1800;-0,0920;0,3548;56,37850574;37,32545690;0,27000001;
16:01:06:016;-0,1800;-0,0920;0,3548;56,37850574;37,32545690;0,27000001;
16:01:06:018;-0,1800;-0,0920;0,3548;56,37850574;37,32545690;0,27000001;
16:01:06:075;-0,1800;-0,0920;0,3548;56,37850574;37,32545690;0,27000001;
16:01:06:077;-0,1800;-0,0920;0,3548;56,37850574;37,32545690;0,27000001;
16:01:06:079;0,1215;-0,0714;0,2334;56,37850574;37,32545690;0,27000001;
16:01:06:099;0,1207;-0,0693;0,2291;56,37850574;37,32545690;0,27000001;
16:01:06:102;0,1207;-0,0693;0,2291;56,37850574;37,32545690;0,27000001;
16:01:06:155;0,1207;-0,0693;0,2291;56,37850574;37,32545690;0,27000001;
16:01:06:158;0,1207;-0,0693;0,2291;56,37850574;37,32545690;0,27000001;
16:01:06:159;0,0683;0,0181;0,1992;56,37850574;37,32545690;0,27000001;
16:01:06:215;0,0683;0,0181;0,1992;56,37850574;37,32545690;0,27000001;
16:01:06:218;0,0683;0,0181;0,1992;56,37850574;37,32545690;0,27000001;
16:01:06:221;0,0407;0,0091;0,2080;56,37850574;37,32545690;0,27000001;
16:01:06:276;0,0407;0,0091;0,2080;56,37850574;37,32545690;0,27000001;
16:01:06:279;0,0407;0,0091;0,2080;56,37850574;37,32545690;0,27000001;
16:01:06:282;0,0781;-0,1073;0,2086;56,37850574;37,32545690;0,27000001;
16:01:06:337;0,0781;-0,1073;0,2086;56,37850574;37,32545690;0,27000001;
16:01:06:339;0,0781;-0,1073;0,2086;56,37850574;37,32545690;0,27000001;
16:01:06:342;0,0213;0,2833;0,0729;56,37850574;37,32545690;0,27000001;
16:01:06:360;0,0213;0,2833;0,0729;56,37850574;37,32545690;0,27000001;
16:01:06:417;0,0213;0,2833;0,0729;56,37850574;37,32545690;0,27000001;
16:01:06:419;0,0213;0,2833;0,0729;56,37850574;37,32545690;0,27000001;
16:01:06:422;0,1484;-0,1471;0,1992;56,37850574;37,32545690;0,27000001;
16:01:06:477;0,1484;-0,1471;0,1992;56,37850574;37,32545690;0,27000001;
16:01:06:480;0,1484;-0,1471;0,1992;56,37850574;37,32545690;0,27000001;
16:01:06:482;0,0600;-0,0094;0,0003;56,37850574;37,32545690;0,27000001;
16:01:06:537;0,0600;-0,0094;0,0003;56,37850574;37,32545690;0,27000001;
16:01:06:540;0,0600;-0,0094;0,0003;56,37850574;37,32545690;0,27000001;
16:01:06:542;0,0286;-0,0056;0,3219;56,37850574;37,32545690;0,27000001;
16:01:06:598;0,0286;-0,0056;0,3219;56,37850574;37,32545690;0,27000001;
16:01:06:600;0,0286;-0,0056;0,3219;56,37850574;37,32545690;0,27000001;
16:01:06:602;0,0186;0,0150;0,1746;56,37850574;37,32545690;0,27000001;
16:01:06:678;0,0186;0,0150;0,1746;56,37850574;37,32545690;0,27000001;
16:01:06:680;0,0186;0,0150;0,1746;56,37850574;37,32545690;0,27000001;
16:01:06:682;0,1024;-0,0133;0,1408;56,37850574;37,32545690;0,27000001;
16:01:06:737;0,1024;-0,0133;0,1408;56,37850574;37,32545690;0,27000001;
16:01:06:739;0,1024;-0,0133;0,1408;56,35270674;37,51467599;2,05999994;
16:01:06:741;0,3417;0,1201;0,1574;56,35270674;37,51467599;2,05999994;
16:01:06:797;0,3417;0,1201;0,1574;56,35270674;37,51467599;2,05999994;
16:01:06:799;0,3417;0,1201;0,1574;56,35270674;37,51467599;2,05999994;
16:01:06:801;-0,1395;0,1483;0,2163;56,35270674;37,51467599;2,05999994;
16:01:06:859;-0,1395;0,1483;0,2163;56,35270674;37,51467599;2,05999994;
16:01:06:862;-0,1395;0,1483;0,2163;56,35270674;37,51467599;2,05999994;
16:01:06:864;0,1442;-0,0225;0,2040;56,35270674;37,51467599;2,05999994;
16:01:06:930;0,1442;-0,0225;0,2040;56,35270674;37,51467599;2,05999994;
16:01:06:932;0,1442;-0,0225;0,2040;56,35270674;37,51467599;2,05999994;
16:01:06:934;0,0770;-0,2428;0,1319;56,35270674;37,51467599;2,05999994;
16:01:06:990;0,0770;-0,2428;0,1319;56,35270674;37,51467599;2,05999994;
16:01:06:993;0,0770;-0,2428;0,1319;56,35270674;37,51467599;2,05999994;
16:01:06:995;0,0092;-0,0038;0,0936;56,35270674;37,51467599;2,05999994;
16:01:07:050;0,0092;-0,0038;0,0936;56,35270674;37,51467599;2,05999994;
16:01:07:054;0,0092;-0,0038;0,0936;56,35270674;37,51467599;2,05999994;
16:01:07:057;0,1132;0,0455;0,1470;56,35270674;37,51467599;2,05999994;
16:01:07:107;0,1132;0,0455;0,1470;56,35270674;37,51467599;2,05999994;
16:01:07:109;0,1132;0,0455;0,1470;56,35270674;37,51467599;2,05999994;
16:01:07:110;0,0849;0,0271;0,1154;56,35270674;37,51467599;2,05999994;
16:01:07:136;0,0849;0,0271;0,1154;56,35270674;37,51467599;2,05999994;
16:01:07:138;0,0717;0,0295;0,1031;56,35270674;37,51467599;2,05999994;
16:01:07:190;0,0717;0,0295;0,1031;56,35270674;37,51467599;2,05999994;
16:01:07:193;0,0717;0,0295;0,1031;56,35270674;37,51467599;2,05999994;
16:01:07:194;0,0265;0,0160;0,1353;56,35270674;37,51467599;2,05999994;
16:01:07:250;0,0265;0,0160;0,1353;56,35270674;37,51467599;2,05999994;
16:01:07:252;0,0265;0,0160;0,1353;56,35270674;37,51467599;2,05999994;
16:01:07:256;0,0793;0,0380;0,1662;56,35270674;37,51467599;2,05999994;
16:01:07:310;0,0793;0,0380;0,1662;56,35270674;37,51467599;2,05999994;
16:01:07:312;0,0793;0,0380;0,1662;56,35270674;37,51467599;2,05999994;
16:01:07:315;0,0548;0,0394;0,1161;56,35270674;37,51467599;2,05999994;
16:01:07:371;0,0548;0,0394;0,1161;56,35270674;37,51467599;2,05999994;
16:01:07:374;0,0548;0,0394;0,1161;56,35270674;37,51467599;2,05999994;
16:01:07:376;0,0363;0,0434;0,0275;56,35270674;37,51467599;2,05999994;
16:01:07:401;0,0363;0,0434;0,0275;56,35270674;37,51467599;2,05999994;
16:01:07:451;0,0363;0,0434;0,0275;56,35270674;37,51467599;2,05999994;
16:01:07:453;0,0363;0,0434;0,0275;56,35270674;37,51467599;2,05999994;
16:01:07:457;-0,0222;0,0298;-0,0031;56,35270674;37,51467599;2,05999994;
16:01:07:512;-0,0222;0,0298;-0,0031;56,35270674;37,51467599;2,05999994;
16:01:07:514;-0,0222;0,0298;-0,0031;56,35270674;37,51467599;2,05999994;
16:01:07:516;0,0456;0,0324;0,1825;56,35270674;37,51467599;2,05999994;
16:01:07:573;0,0456;0,0324;0,1825;56,35270674;37,51467599;2,05999994;
16:01:07:575;0,0456;0,0324;0,1825;56,35270674;37,51467599;2,05999994;
16:01:07:577;0,0333;0,0309;0,0905;56,35270674;37,51467599;2,05999994;
16:01:07:621;0,0333;0,0309;0,0905;56,35270674;37,51467599;2,05999994;
16:01:07:623;0,0333;0,0309;0,0905;56,35270674;37,51467599;2,05999994;
16:01:07:625;0,0252;0,0176;0,0364;56,35270674;37,51467599;2,05999994;
16:01:07:713;0,0252;0,0176;0,0364;56,35270674;37,51467599;2,05999994;
16:01:07:715;0,0252;0,0176;0,0364;56,35269718;37,51472112;2,25000000;
16:01:07:716;0,0321;0,0346;-0,0027;56,35269718;37,51472112;2,25000000;
16:01:07:773;-0,0181;0,0339;-0,0889;56,35269718;37,51472112;2,25000000;
16:01:07:775;-0,0181;0,0339;-0,0889;56,35269718;37,51472112;2,25000000;
16:01:07:777;-0,0181;0,0339;-0,0889;56,35269718;37,51472112;2,25000000;
16:01:07:832;-0,0181;0,0339;-0,0889;56,35269718;37,51472112;2,25000000;
16:01:07:834;-0,0181;0,0339;-0,0889;56,35269718;37,51472112;2,25000000;
16:01:07:835;0,0009;-0,0082;0,0593;56,35269718;37,51472112;2,25000000;
16:01:07:894;0,0009;-0,0082;0,0593;56,35269718;37,51472112;2,25000000;
16:01:07:897;0,0009;-0,0082;0,0593;56,35269718;37,51472112;2,25000000;
16:01:07:899;0,0286;0,0311;0,2075;56,35269718;37,51472112;2,25000000;
16:01:07:921;0,0286;0,0311;0,2075;56,35269718;37,51472112;2,25000000;
16:01:07:925;0,0233;0,0270;0,1845;56,35269718;37,51472112;2,25000000;
16:01:07:975;0,0233;0,0270;0,1845;56,35269718;37,51472112;2,25000000;
16:01:07:978;0,0233;0,0270;0,1845;56,35269718;37,51472112;2,25000000;
16:01:07:980;0,0519;0,0156;-0,0372;56,35269718;37,51472112;2,25000000;
16:01:08:034;0,0519;0,0156;-0,0372;56,35269718;37,51472112;2,25000000;
16:01:08:037;0,0519;0,0156;-0,0372;56,35269718;37,51472112;2,25000000;
16:01:08:039;0,0248;0,0076;-0,0518;56,35269718;37,51472112;2,25000000;
16:01:08:095;0,0248;0,0076;-0,0518;56,35269718;37,51472112;2,25000000;
16:01:08:098;0,0248;0,0076;-0,0518;56,35269718;37,51472112;2,25000000;
16:01:08:100;0,0279;0,0157;-0,0112;56,35269718;37,51472112;2,25000000;
16:01:08:133;0,0279;0,0157;-0,0112;56,35269718;37,51472112;2,25000000;
16:01:08:175;-0,0584;0,0169;0,0197;56,35269718;37,51472112;2,25000000;
16:01:08:178;-0,0584;0,0169;0,0197;56,35269718;37,51472112;2,25000000;
16:01:08:180;-0,0584;0,0169;0,0197;56,35269718;37,51472112;2,25000000;
16:01:08:226;-0,0584;0,0169;0,0197;56,35269718;37,51472112;2,25000000;
16:01:08:228;-0,0584;0,0169;0,0197;56,35269718;37,51472112;2,25000000;
16:01:08:230;0,0304;0,0107;0,1226;56,35269718;37,51472112;2,25000000;
16:01:08:286;0,0304;0,0107;0,1226;56,35269718;37,51472112;2,25000000;
16:01:08:289;0,0304;0,0107;0,1226;56,35269718;37,51472112;2,25000000;
16:01:08:291;0,0280;0,0167;0,0214;56,35269718;37,51472112;2,25000000;
16:01:08:347;0,0280;0,0167;0,0214;56,35269718;37,51472112;2,25000000;
16:01:08:349;0,0280;0,0167;0,0214;56,35269718;37,51472112;2,25000000;
16:01:08:351;-0,0135;-0,0002;-0,0557;56,35269718;37,51472112;2,25000000;
16:01:08:408;-0,0135;-0,0002;-0,0557;56,35269718;37,51472112;2,25000000;
16:01:08:410;-0,0135;-0,0002;-0,0557;56,35269718;37,51472112;2,25000000;
16:01:08:413;-0,0150;0,0287;-0,0579;56,35269718;37,51472112;2,25000000;
16:01:08:497;-0,0150;0,0287;-0,0579;56,35269718;37,51472112;2,25000000;
16:01:08:500;-0,0150;0,0287;-0,0579;56,35269718;37,51472112;2,25000000;
16:01:08:502;-0,0408;0,0256;-0,1075;56,35269718;37,51472112;2,25000000;
16:01:08:558;-0,0408;0,0256;-0,1075;56,35269718;37,51472112;2,25000000;
16:01:08:560;-0,0408;0,0256;-0,1075;56,35269718;37,51472112;2,25000000;
16:01:08:562;-0,0309;0,0039;0,0366;56,35269718;37,51472112;2,25000000;
16:01:08:616;-0,0309;0,0039;0,0366;56,35269718;37,51472112;2,25000000;
16:01:08:622;-0,0309;0,0039;0,0366;56,35269718;37,51472112;2,25000000;
16:01:08:624;-0,0646;0,0102;0,1438;56,35269718;37,51472112;2,25000000;
16:01:08:646;-0,0646;0,0102;0,1438;56,35269718;37,51472112;2,25000000;
16:01:08:648;-0,0625;0,0075;0,1280;56,35269718;37,51472112;2,25000000;
16:01:08:695;-0,0625;0,0075;0,1280;56,35269718;37,51472112;2,25000000;
16:01:08:697;-0,0625;0,0075;0,1280;56,35268114;37,51476105;2,39000010;
16:01:08:699;-0,1087;0,0030;0,0843;56,35268114;37,51476105;2,39000010;
16:01:08:758;-0,1087;0,0030;0,0843;56,35268114;37,51476105;2,39000010;
16:01:08:760;-0,1087;0,0030;0,0843;56,35268114;37,51476105;2,39000010;
16:01:08:762;0,0657;0,0174;-0,1047;56,35268114;37,51476105;2,39000010;
16:01:08:818;0,0657;0,0174;-0,1047;56,35268114;37,51476105;2,39000010;
16:01:08:822;0,0657;0,0174;-0,1047;56,35268114;37,51476105;2,39000010;
16:01:08:825;0,0930;0,0108;-0,1395;56,35268114;37,51476105;2,39000010;
16:01:08:878;0,0930;0,0108;-0,1395;56,35268114;37,51476105;2,39000010;
16:01:08:879;0,0930;0,0108;-0,1395;56,35268114;37,51476105;2,39000010;
16:01:08:881;0,0623;-0,0014;-0,0624;56,35268114;37,51476105;2,39000010;
16:01:08:939;0,0623;-0,0014;-0,0624;56,35268114;37,51476105;2,39000010;
16:01:08:942;0,0623;-0,0014;-0,0624;56,35268114;37,51476105;2,39000010;
16:01:08:943;0,0088;0,0224;0,0637;56,35268114;37,51476105;2,39000010;
16:01:08:957;0,0088;0,0224;0,0637;56,35268114;37,51476105;2,39000010;
16:01:09:020;0,0088;0,0224;0,0637;56,35268114;37,51476105;2,39000010;
16:01:09:022;0,0088;0,0224;0,0637;56,35268114;37,51476105;2,39000010;
16:01:09:025;0,0043;0,0066;-0,0223;56,35268114;37,51476105;2,39000010;
16:01:09:080;0,0043;0,0066;-0,0223;56,35268114;37,51476105;2,39000010;
16:01:09:083;0,0043;0,0066;-0,0223;56,35268114;37,51476105;2,39000010;
16:01:09:085;-0,0078;0,0095;-0,0607;56,35268114;37,51476105;2,39000010;
16:01:09:141;-0,0078;0,0095;-0,0607;56,35268114;37,51476105;2,39000010;
16:01:09:143;-0,0078;0,0095;-0,0607;56,35268114;37,51476105;2,39000010;
16:01:09:145;-0,0175;0,0139;-0,0557;56,35268114;37,51476105;2,39000010;
16:01:09:211;-0,0175;0,0139;-0,0557;56,35268114;37,51476105;2,39000010;
16:01:09:213;-0,0175;0,0139;-0,0557;56,35268114;37,51476105;2,39000010;
16:01:09:215;0,0035;0,0190;0,0081;56,35268114;37,51476105;2,39000010;
16:01:09:271;0,0035;0,0190;0,0081;56,35268114;37,51476105;2,39000010;
16:01:09:274;0,0035;0,0190;0,0081;56,35268114;37,51476105;2,39000010;
16:01:09:276;0,0507;0,0136;0,0342;56,35268114;37,51476105;2,39000010;
16:01:09:331;0,0507;0,0136;0,0342;56,35268114;37,51476105;2,39000010;
16:01:09:334;0,0507;0,0136;0,0342;56,35268114;37,51476105;2,39000010;
16:01:09:335;0,0243;0,0216;-0,0200;56,35268114;37,51476105;2,39000010;
16:01:09:392;0,0243;0,0216;-0,0200;56,35268114;37,51476105;2,39000010;
16:01:09:394;0,0243;0,0216;-0,0200;56,35268114;37,51476105;2,39000010;
16:01:09:396;0,0060;0,0367;-0,0707;56,35268114;37,51476105;2,39000010;
16:01:09:452;0,0060;0,0367;-0,0707;56,35268114;37,51476105;2,39000010;
16:01:09:454;0,0060;0,0367;-0,0707;56,35268114;37,51476105;2,39000010;
16:01:09:457;0,0550;0,0245;-0,0326;56,35268114;37,51476105;2,39000010;
16:01:09:523;0,0372;0,0203;-0,0326;56,35268114;37,51476105;2,39000010;
16:01:09:527;0,0372;0,0203;-0,0326;56,35268114;37,51476105;2,39000010;
16:01:09:529;0,0372;0,0203;-0,0326;56,35268114;37,51476105;2,39000010;
16:01:09:583;0,0372;0,0203;-0,0326;56,35268114;37,51476105;2,39000010;
16:01:09:585;0,0372;0,0203;-0,0326;56,35268114;37,51476105;2,39000010;
16:01:09:587;0,0010;0,0398;0,1076;56,35268114;37,51476105;2,39000010;
16:01:09:643;0,0010;0,0398;0,1076;56,35268114;37,51476105;2,39000010;
16:01:09:646;0,0010;0,0398;0,1076;56,35268114;37,51476105;2,39000010;
16:01:09:651;-0,0804;0,0480;0,0600;56,35268114;37,51476105;2,39000010;
16:01:09:671;-0,0804;0,0480;0,0600;56,35268114;37,51476105;2,39000010;
16:01:09:674;-0,0713;0,0434;0,0533;56,35266881;37,51481203;2,70000005;
16:01:09:723;-0,0713;0,0434;0,0533;56,35266881;37,51481203;2,70000005;
16:01:09:725;-0,0713;0,0434;0,0533;56,35266881;37,51481203;2,70000005;
16:01:09:726;0,0059;0,1922;-0,0689;56,35266881;37,51481203;2,70000005;
16:01:09:784;0,0059;0,1922;-0,0689;56,35266881;37,51481203;2,70000005;
16:01:09:786;0,0059;0,1922;-0,0689;56,35266881;37,51481203;2,70000005;
16:01:09:788;0,1060;0,2806;-0,0000;56,35266881;37,51481203;2,70000005;
16:01:09:845;0,1060;0,2806;-0,0000;56,35266881;37,51481203;2,70000005;
16:01:09:847;0,1060;0,2806;-0,0000;56,35266881;37,51481203;2,70000005;
16:01:09:849;0,0564;0,3525;0,0003;56,35266881;37,51481203;2,70000005;
16:01:09:905;0,0564;0,3525;0,0003;56,35266881;37,51481203;2,70000005;
16:01:09:908;0,0564;0,3525;0,0003;56,35266881;37,51481203;2,70000005;
16:01:09:910;-0,0337;0,3441;-0,0441;56,35266881;37,51481203;2,70000005;
16:01:09:964;-0,0337;0,3441;-0,0441;56,35266881;37,51481203;2,70000005;
16:01:09:966;-0,0337;0,3441;-0,0441;56,35266881;37,51481203;2,70000005;
16:01:09:968;-0,0004;0,3075;-0,0437;56,35266881;37,51481203;2,70000005;
16:01:09:985;-0,0004;0,3075;-0,0437;56,35266881;37,51481203;2,70000005;
16:01:10:046;-0,0004;0,3075;-0,0437;56,35266881;37,51481203;2,70000005;
16:01:10:048;-0,0004;0,3075;-0,0437;56,35266881;37,51481203;2,70000005;
16:01:10:050;-0,0150;0,1899;0,0734;56,35266881;37,51481203;2,70000005;
16:01:10:106;-0,0150;0,1899;0,0734;56,35266881;37,51481203;2,70000005;
16:01:10:108;-0,0150;0,1899;0,0734;56,35266881;37,51481203;2,70000005;
16:01:10:110;0,0364;0,1366;0,0069;56,35266881;37,51481203;2,70000005;
16:01:10:167;0,0364;0,1366;0,0069;56,35266881;37,51481203;2,70000005;
16:01:10:169;0,0364;0,1366;0,0069;56,35266881;37,51481203;2,70000005;
16:01:10:171;0,0666;0,1674;-0,0578;56,35266881;37,51481203;2,70000005;
16:01:10:236;0,0666;0,1674;-0,0578;56,35266881;37,51481203;2,70000005;
16:01:10:240;0,0666;0,1674;-0,0578;56,35266881;37,51481203;2,70000005;
16:01:10:243;-0,0291;0,1811;-0,0092;56,35266881;37,51481203;2,70000005;
16:01:10:307;-0,0291;0,1811;-0,0092;56,35266881;37,51481203;2,70000005;
16:01:10:310;-0,0291;0,1811;-0,0092;56,35266881;37,51481203;2,70000005;
16:01:10:311;-0,0352;0,2328;-0,0218;56,35266881;37,51481203;2,70000005;
16:01:10:367;-0,0352;0,2328;-0,0218;56,35266881;37,51481203;2,70000005;
16:01:10:370;-0,0352;0,2328;-0,0218;56,35266881;37,51481203;2,70000005;
16:01:10:372;-0,0027;0,3032;0,0993;56,35266881;37,51481203;2,70000005;
16:01:10:428;-0,0027;0,3032;0,0993;56,35266881;37,51481203;2,70000005;
16:01:10:431;-0,0027;0,3032;0,0993;56,35266881;37,51481203;2,70000005;
16:01:10:433;0,0192;0,4329;-0,0153;56,35266881;37,51481203;2,70000005;
16:01:10:488;0,0192;0,4329;-0,0153;56,35266881;37,51481203;2,70000005;
16:01:10:490;0,0192;0,4329;-0,0153;56,35266881;37,51481203;2,70000005;
16:01:10:492;-0,0398;0,5165;-0,0153;56,35266881;37,51481203;2,70000005;
16:01:10:509;-0,0398;0,5165;-0,0153;56,35266881;37,51481203;2,70000005;
16:01:10:513;-0,0417;0,5049;-0,0150;56,35266881;37,51481203;2,70000005;
16:01:10:568;-0,0417;0,5049;-0,0150;56,35266881;37,51481203;2,70000005;
16:01:10:571;-0,0417;0,5049;-0,0150;56,35266881;37,51481203;2,70000005;
16:01:10:573;-0,0443;0,6032;-0,0360;56,35266881;37,51481203;2,70000005;
16:01:10:629;-0,0443;0,6032;-0,0360;56,35266881;37,51481203;2,70000005;
16:01:10:631;-0,0443;0,6032;-0,0360;56,35266881;37,51481203;2,70000005;
16:01:10:633;0,0285;0,5404;-0,0483;56,35266881;37,51481203;2,70000005;
16:01:10:686;0,0285;0,5404;-0,0483;56,35266881;37,51481203;2,70000005;
16:01:10:688;0,0285;0,5404;-0,0483;56,35267124;37,51484424;3,08999991;
16:01:10:690;-0,0001;0,4355;-0,0113;56,35267124;37,51484424;3,08999991;
16:01:10:749;-0,0001;0,4355;-0,0113;56,35267124;37,51484424;3,08999991;
16:01:10:751;-0,0001;0,4355;-0,0113;56,35267124;37,51484424;3,08999991;
16:01:10:753;0,0290;0,3927;-0,0123;56,35267124;37,51484424;3,08999991;
16:01:10:766;0,0290;0,3927;-0,0123;56,35267124;37,51484424;3,08999991;
16:01:10:820;0,0290;0,3927;-0,0123;56,35267124;37,51484424;3,08999991;
16:01:10:823;0,0290;0,3927;-0,0123;56,35267124;37,51484424;3,08999991;
16:01:10:825;-0,0167;0,2763;-0,0082;56,35267124;37,51484424;3,08999991;
16:01:10:880;-0,0167;0,2763;-0,0082;56,35267124;37,51484424;3,08999991;
16:01:10:883;-0,0167;0,2763;-0,0082;56,35267124;37,51484424;3,08999991;
16:01:10:885;0,0015;0,2214;0,0494;56,35267124;37,51484424;3,08999991;
16:01:10:941;0,0015;0,2214;0,0494;56,35267124;37,51484424;3,08999991;
16:01:10:944;-0,0030;0,1812;0,0922;56,35267124;37,51484424;3,08999991;
16:01:10:947;-0,0030;0,1812;0,0922;56,35267124;37,51484424;3,08999991;
16:01:11:000;-0,0030;0,1812;0,0922;56,35267124;37,51484424;3,08999991;
16:01:11:003;-0,0030;0,1812;0,0922;56,35267124;37,51484424;3,08999991;
16:01:11:004;0,0054;0,1481;-0,0079;56,35267124;37,51484424;3,08999991;
16:01:11:080;0,0054;0,1481;-0,0079;56,35267124;37,51484424;3,08999991;
16:01:11:082;0,0054;0,1481;-0,0079;56,35267124;37,51484424;3,08999991;
16:01:11:082;0,0178;0,1211;-0,0512;56,35267124;37,51484424;3,08999991;
16:01:11:142;0,0178;0,1211;-0,0512;56,35267124;37,51484424;3,08999991;
16:01:11:144;0,0178;0,1211;-0,0512;56,35267124;37,51484424;3,08999991;
16:01:11:146;-0,0566;0,0977;-0,0933;56,35267124;37,51484424;3,08999991;
16:01:11:201;-0,0566;0,0977;-0,0933;56,35267124;37,51484424;3,08999991;
16:01:11:204;-0,0566;0,0977;-0,0933;56,35267124;37,51484424;3,08999991;
16:01:11:206;-0,0770;0,0866;0,0388;56,35267124;37,51484424;3,08999991;
16:01:11:262;-0,0770;0,0866;0,0388;56,35267124;37,51484424;3,08999991;
16:01:11:265;-0,0770;0,0866;0,0388;56,35267124;37,51484424;3,08999991;
16:01:11:267;0,0641;0,0270;-0,0180;56,35267124;37,51484424;3,08999991;
16:01:11:290;0,0641;0,0270;-0,0180;56,35267124;37,51484424;3,08999991;
16:01:11:293;0,0566;0,0247;-0,0160;56,35267124;37,51484424;3,08999991;
16:01:11:342;0,0566;0,0247;-0,0160;56,35267124;37,51484424;3,08999991;
16:01:11:345;0,0566;0,0247;-0,0160;56,35267124;37,51484424;3,08999991;
16:01:11:347;0,0598;0,0513;-0,0018;56,35267124;37,51484424;3,08999991;
16:01:11:403;0,0598;0,0513;-0,0018;56,35267124;37,51484424;3,08999991;
16:01:11:405;0,0598;0,0513;-0,0018;56,35267124;37,51484424;3,08999991;
16:01:11:407;0,0754;-0,0109;-0,0329;56,35267124;37,51484424;3,08999991;
16:01:11:463;0,0754;-0,0109;-0,0329;56,35267124;37,51484424;3,08999991;
16:01:11:466;0,0754;-0,0109;-0,0329;56,35267124;37,51484424;3,08999991;
16:01:11:468;0,0542;-0,1094;-0,0759;56,35267124;37,51484424;3,08999991;
16:01:11:524;0,0542;-0,1094;-0,0759;56,35267124;37,51484424;3,08999991;
16:01:11:526;0,0542;-0,1094;-0,0759;56,35267124;37,51484424;3,08999991;
16:01:11:528;-0,0135;0,0811;0,1259;56,35267124;37,51484424;3,08999991;
16:01:11:551;-0,0135;0,0811;0,1259;56,35267124;37,51484424;3,08999991;
16:01:11:603;-0,0135;0,0811;0,1259;56,35267124;37,51484424;3,08999991;
16:01:11:606;-0,0135;0,0811;0,1259;56,35267124;37,51484424;3,08999991;
16:01:11:608;-0,0568;0,2215;-0,0789;56,35267124;37,51484424;3,08999991;
16:01:11:672;-0,0568;0,2215;-0,0789;56,35267124;37,51484424;3,08999991;
16:01:11:674;-0,0568;0,2215;-0,0789;56,35266493;37,51489579;3,89000010;
16:01:11:676;-0,0141;0,2091;-0,0202;56,35266493;37,51489579;3,89000010;
16:01:11:711;-0,0141;0,2091;-0,0202;56,35266493;37,51489579;3,89000010;
16:01:11:713;-0,0153;0,2057;-0,0198;56,35266493;37,51489579;3,89000010;
16:01:11:763;-0,0153;0,2057;-0,0198;56,35266493;37,51489579;3,89000010;
16:01:11:766;-0,0153;0,2057;-0,0198;56,35266493;37,51489579;3,89000010;
16:01:11:767;-0,0172;0,1138;-0,0779;56,35266493;37,51489579;3,89000010;
16:01:11:812;-0,0172;0,1138;-0,0779;56,35266493;37,51489579;3,89000010;
16:01:11:864;-0,0172;0,1138;-0,0779;56,35266493;37,51489579;3,89000010;
16:01:11:866;-0,0172;0,1138;-0,0779;56,35266493;37,51489579;3,89000010;
16:01:11:868;0,0338;-0,2191;0,0432;56,35266493;37,51489579;3,89000010;
16:01:11:924;0,0338;-0,2191;0,0432;56,35266493;37,51489579;3,89000010;
16:01:11:926;0,0338;-0,2191;0,0432;56,35266493;37,51489579;3,89000010;
16:01:11:928;0,0325;-0,3486;0,0949;56,35266493;37,51489579;3,89000010;
16:01:11:985;0,0325;-0,3486;0,0949;56,35266493;37,51489579;3,89000010;
16:01:11:988;0,0325;-0,3486;0,0949;56,35266493;37,51489579;3,89000010;
16:01:11:990;-0,0211;-0,3525;0,0344;56,35266493;37,51489579;3,89000010;
16:01:12:046;-0,0211;-0,3525;0,0344;56,35266493;37,51489579;3,89000010;
16:01:12:049;-0,0211;-0,3525;0,0344;56,35266493;37,51489579;3,89000010;
16:01:12:051;-0,0445;-0,3967;-0,1016;56,35266493;37,51489579;3,89000010;
16:01:12:075;-0,0445;-0,3967;-0,1016;56,35266493;37,51489579;3,89000010;
16:01:12:078;-0,0458;-0,3879;-0,0998;56,35266493;37,51489579;3,89000010;
16:01:12:136;-0,0458;-0,3879;-0,0998;56,35266493;37,51489579;3,89000010;
16:01:12:139;-0,0458;-0,3879;-0,0998;56,35266493;37,51489579;3,89000010;
16:01:12:141;-0,0108;-0,4090;0,0710;56,35266493;37,51489579;3,89000010;
16:01:12:197;-0,0108;-0,4090;0,0710;56,35266493;37,51489579;3,89000010;
16:01:12:200;-0,0108;-0,4090;0,0710;56,35266493;37,51489579;3,89000010;
16:01:12:202;-0,0052;-0,3801;0,0712;56,35266493;37,51489579;3,89000010;
16:01:12:225;-0,0052;-0,3801;0,0712;56,35266493;37,51489579;3,89000010;
16:01:12:277;-0,0052;-0,3801;0,0712;56,35266493;37,51489579;3,89000010;
16:01:12:281;-0,0052;-0,3801;0,0712;56,35266493;37,51489579;3,89000010;
16:01:12:282;-0,0128;-0,3736;0,0062;56,35266493;37,51489579;3,89000010;
16:01:12:337;-0,0128;-0,3736;0,0062;56,35266493;37,51489579;3,89000010;
16:01:12:340;-0,0128;-0,3736;0,0062;56,35266493;37,51489579;3,89000010;
16:01:12:342;0,0281;-0,4151;0,0054;56,35266493;37,51489579;3,89000010;
16:01:12:398;0,0281;-0,4151;0,0054;56,35266493;37,51489579;3,89000010;
16:01:12:402;0,0281;-0,4151;0,0054;56,35266493;37,51489579;3,89000010;
16:01:12:404;-0,0104;-0,3678;-0,0146;56,35266493;37,51489579;3,89000010;
16:01:12:458;-0,0104;-0,3678;-0,0146;56,35266493;37,51489579;3,89000010;
16:01:12:461;-0,0104;-0,3678;-0,0146;56,35266493;37,51489579;3,89000010;
16:01:12:463;0,0452;-0,2704;-0,0944;56,35266493;37,51489579;3,89000010;
16:01:12:519;0,0452;-0,2704;-0,0944;56,35266493;37,51489579;3,89000010;
16:01:12:521;0,0452;-0,2704;-0,0944;56,35266493;37,51489579;3,89000010;
16:01:12:523;-0,0278;-0,3111;0,0584;56,35266493;37,51489579;3,89000010;
16:01:12:579;-0,0278;-0,3111;0,0584;56,35266493;37,51489579;3,89000010;
16:01:12:581;-0,0278;-0,3111;0,0584;56,35266493;37,51489579;3,89000010;
16:01:12:583;-0,0439;-0,2180;0,0459;56,35266493;37,51489579;3,89000010;
16:01:12:659;-0,0439;-0,2180;0,0459;56,35266493;37,51489579;3,89000010;
16:01:12:662;-0,0439;-0,2180;0,0459;56,35266493;37,51489579;3,89000010;
16:01:12:664;0,0026;-0,1867;-0,0378;56,35266493;37,51489579;3,89000010;
16:01:12:717;0,0026;-0,1867;-0,0378;56,35266493;37,51489579;3,89000010;
16:01:12:719;0,0026;-0,1867;-0,0378;56,35265327;37,51496631;4,67000008;
16:01:12:721;0,0297;-0,1830;-0,0046;56,35265327;37,51496631;4,67000008;
16:01:12:734;0,0297;-0,1830;-0,0046;56,35265327;37,51496631;4,67000008;
16:01:12:736;0,0261;-0,1594;-0,0040;56,35265327;37,51496631;4,67000008;
16:01:12:789;0,0261;-0,1594;-0,0040;56,35265327;37,51496631;4,67000008;
16:01:12:790;0,0261;-0,1594;-0,0040;56,35265327;37,51496631;4,67000008;
16:01:12:791;0,0342;-0,1308;0,0330;56,35265327;37,51496631;4,67000008;
16:01:12:850;0,0342;-0,1308;0,0330;56,35265327;37,51496631;4,67000008;
16:01:12:853;0,0342;-0,1308;0,0330;56,35265327;37,51496631;4,67000008;
16:01:12:856;-0,0334;-0,1323;0,1080;56,35265327;37,51496631;4,67000008;
16:01:12:920;-0,0334;-0,1323;0,1080;56,35265327;37,51496631;4,67000008;
16:01:12:923;-0,0334;-0,1323;0,1080;56,35265327;37,51496631;4,67000008;
16:01:12:925;-0,0127;-0,0906;-0,1217;56,35265327;37,51496631;4,67000008;
16:01:12:980;-0,0127;-0,0906;-0,1217;56,35265327;37,51496631;4,67000008;
16:01:12:983;-0,0127;-0,0906;-0,1217;56,35265327;37,51496631;4,67000008;
16:01:12:985;-0,0216;-0,0938;-0,0289;56,35265327;37,51496631;4,67000008;
16:01:13:042;-0,0216;-0,0938;-0,0289;56,35265327;37,51496631;4,67000008;
16:01:13:044;-0,0216;-0,0938;-0,0289;56,35265327;37,51496631;4,67000008;
16:01:13:046;0,0232;-0,0879;-0,0709;56,35265327;37,51496631;4,67000008;
16:01:13:100;0,0232;-0,0879;-0,0709;56,35265327;37,51496631;4,67000008;
16:01:13:103;0,0232;-0,0879;-0,0709;56,35265327;37,51496631;4,67000008;
16:01:13:104;0,0282;-0,0932;0,0128;56,35265327;37,51496631;4,67000008;
16:01:13:122;0,0282;-0,0932;0,0128;56,35265327;37,51496631;4,67000008;
16:01:13:182;0,0282;-0,0932;0,0128;56,35265327;37,51496631;4,67000008;
16:01:13:186;0,0282;-0,0932;0,0128;56,35265327;37,51496631;4,67000008;
16:01:13:188;-0,0035;-0,0631;0,0146;56,35265327;37,51496631;4,67000008;
16:01:13:242;-0,0035;-0,0631;0,0146;56,35265327;37,51496631;4,67000008;
16:01:13:245;-0,0035;-0,0631;0,0146;56,35265327;37,51496631;4,67000008;
16:01:13:247;-0,0381;-0,0802;-0,0548;56,35265327;37,51496631;4,67000008;
16:01:13:303;-0,0381;-0,0802;-0,0548;56,35265327;37,51496631;4,67000008;
16:01:13:307;-0,0381;-0,0802;-0,0548;56,35265327;37,51496631;4,67000008;
16:01:13:309;-0,0734;-0,0681;-0,0245;56,35265327;37,51496631;4,67000008;
16:01:13:362;-0,0734;-0,0681;-0,0245;56,35265327;37,51496631;4,67000008;
16:01:13:365;-0,0734;-0,0681;-0,0245;56,35265327;37,51496631;4,67000008;
16:01:13:367;0,0204;-0,0298;0,0365;56,35265327;37,51496631;4,67000008;
16:01:13:443;0,0204;-0,0298;0,0365;56,35265327;37,51496631;4,67000008;
16:01:13:446;0,0204;-0,0298;0,0365;56,35265327;37,51496631;4,67000008;
16:01:13:448;0,0195;-0,0397;-0,0703;56,35265327;37,51496631;4,67000008;
16:01:13:504;0,0195;-0,0397;-0,0703;56,35265327;37,51496631;4,67000008;
16:01:13:508;0,0195;-0,0397;-0,0703;56,35265327;37,51496631;4,67000008;
16:01:13:509;0,0834;-0,0681;-0,0284;56,35265327;37,51496631;4,67000008;
16:01:13:564;0,0834;-0,0681;-0,0284;56,35265327;37,51496631;4,67000008;
16:01:13:567;0,0834;-0,0681;-0,0284;56,35265327;37,51496631;4,67000008;
16:01:13:568;0,0591;-0,0423;0,1763;56,35265327;37,51496631;4,67000008;
16:01:13:624;0,0591;-0,0423;0,1763;56,35265327;37,51496631;4,67000008;
16:01:13:627;-0,0226;-0,0265;0,0967;56,35265327;37,51496631;4,67000008;
16:01:13:629;-0,0226;-0,0265;0,0967;56,35265327;37,51496631;4,67000008;
16:01:13:645;-0,0226;-0,0265;0,0967;56,35265327;37,51496631;4,67000008;
16:01:13:647;-0,0171;-0,0224;0,0859;56,35265327;37,51496631;4,67000008;
16:01:13:703;-0,0171;-0,0224;0,0859;56,35265327;37,51496631;4,67000008;
16:01:13:705;-0,0171;-0,0224;0,0859;56,35264174;37,51503569;4,76000023;
16:01:13:707;-0,0254;-0,0159;-0,0901;56,35264174;37,51503569;4,76000023;
16:01:13:754;-0,0254;-0,0159;-0,0901;56,35264174;37,51503569;4,76000023;
16:01:13:755;-0,0254;-0,0159;-0,0901;56,35264174;37,51503569;4,76000023;
16:01:13:757;-0,0523;-0,0209;-0,0849;56,35264174;37,51503569;4,76000023;
16:01:13:816;-0,0523;-0,0209;-0,0849;56,35264174;37,51503569;4,76000023;
16:01:13:818;-0,0523;-0,0209;-0,0849;56,35264174;37,51503569;4,76000023;
16:01:13:820;-0,0272;-0,0279;0,0660;56,35264174;37,51503569;4,76000023;
16:01:13:876;0,0363;-0,0198;-0,0305;56,35264174;37,51503569;4,76000023;
16:01:13:879;0,0363;-0,0198;-0,0305;56,35264174;37,51503569;4,76000023;
16:01:13:881;0,0363;-0,0198;-0,0305;56,35264174;37,51503569;4,76000023;
16:01:13:907;0,0363;-0,0198;-0,0305;56,35264174;37,51503569;4,76000023;
16:01:13:966;0,0363;-0,0198;-0,0305;56,35264174;37,51503569;4,76000023;
16:01:13:968;0,0363;-0,0198;-0,0305;56,35264174;37,51503569;4,76000023;
16:01:13:969;0,0168;-0,0192;-0,0510;56,35264174;37,51503569;4,76000023;
16:01:14:027;0,0168;-0,0192;-0,0510;56,35264174;37,51503569;4,76000023;
16:01:14:029;0,0168;-0,0192;-0,0510;56,35264174;37,51503569;4,76000023;
16:01:14:031;0,0667;-0,0279;0,0845;56,35264174;37,51503569;4,76000023;
16:01:14:087;0,0667;-0,0279;0,0845;56,35264174;37,51503569;4,76000023;
16:01:14:090;0,0212;-0,0040;0,0028;56,35264174;37,51503569;4,76000023;
16:01:14:092;0,0212;-0,0040;0,0028;56,35264174;37,51503569;4,76000023;
16:01:14:147;0,0212;-0,0040;0,0028;56,35264174;37,51503569;4,76000023;
16:01:14:150;0,0212;-0,0040;0,0028;56,35264174;37,51503569;4,76000023;
16:01:14:152;-0,0570;0,0063;-0,0360;56,35264174;37,51503569;4,76000023;
16:01:14:226;-0,0570;0,0063;-0,0360;56,35264174;37,51503569;4,76000023;
16:01:14:230;-0,0273;0,0110;-0,0555;56,35264174;37,51503569;4,76000023;
16:01:14:232;-0,0273;0,0110;-0,0555;56,35264174;37,51503569;4,76000023;
16:01:14:267;-0,0273;0,0110;-0,0555;56,35264174;37,51503569;4,76000023;
16:01:14:270;-0,0273;0,0110;-0,0555;56,35264174;37,51503569;4,76000023;
16:01:14:272;0,0028;-0,0244;-0,0575;56,35264174;37,51503569;4,76000023;
16:01:14:328;0,0028;-0,0244;-0,0575;56,35264174;37,51503569;4,76000023;
16:01:14:331;0,0028;-0,0244;-0,0575;56,35264174;37,51503569;4,76000023;
16:01:14:333;0,0276;-0,0303;0,0383;56,35264174;37,51503569;4,76000023;
16:01:14:388;0,0276;-0,0303;0,0383;56,35264174;37,51503569;4,76000023;
16:01:14:392;0,0276;-0,0303;0,0383;56,35264174;37,51503569;4,76000023;
16:01:14:394;0,0828;-0,0473;0,0500;56,35264174;37,51503569;4,76000023;
16:01:14:430;0,0757;-0,0365;0,0447;56,35264174;37,51503569;4,76000023;
16:01:14:433;0,0757;-0,0365;0,0447;56,35264174;37,51503569;4,76000023;
16:01:14:490;0,0757;-0,0365;0,0447;56,35264174;37,51503569;4,76000023;
16:01:14:493;0,0757;-0,0365;0,0447;56,35264174;37,51503569;4,76000023;
16:01:14:495;-0,0353;-0,0524;0,0475;56,35264174;37,51503569;4,76000023;
16:01:14:549;-0,0353;-0,0524;0,0475;56,35264174;37,51503569;4,76000023;
16:01:14:552;-0,0353;-0,0524;0,0475;56,35264174;37,51503569;4,76000023;
16:01:14:554;-0,0909;-0,1108;-0,0077;56,35264174;37,51503569;4,76000023;
16:01:14:609;-0,0909;-0,1108;-0,0077;56,35264174;37,51503569;4,76000023;
16:01:14:612;-0,0909;-0,1108;-0,0077;56,35264174;37,51503569;4,76000023;
16:01:14:614;0,0336;-0,2173;0,0322;56,35264174;37,51503569;4,76000023;
16:01:14:670;0,0336;-0,2173;0,0322;56,35264174;37,51503569;4,76000023;
16:01:14:672;0,0336;-0,2173;0,0322;56,35263237;37,51510675;4,96000004;
16:01:14:675;-0,0220;-0,3755;-0,0808;56,35263237;37,51510675;4,96000004;
16:01:14:690;-0,0220;-0,3755;-0,0808;56,35263237;37,51510675;4,96000004;
16:01:14:749;-0,0220;-0,3755;-0,0808;56,35263237;37,51510675;4,96000004;
16:01:14:750;-0,0220;-0,3755;-0,0808;56,35263237;37,51510675;4,96000004;
16:01:14:752;-0,0180;-0,5479;-0,0400;56,35263237;37,51510675;4,96000004;
16:01:14:778;-0,0180;-0,5479;-0,0400;56,35263237;37,51510675;4,96000004;
16:01:14:780;-0,0164;-0,5335;-0,0391;56,35263237;37,51510675;4,96000004;
16:01:14:840;-0,0164;-0,5335;-0,0391;56,35263237;37,51510675;4,96000004;
16:01:14:842;-0,0164;-0,5335;-0,0391;56,35263237;37,51510675;4,96000004;
16:01:14:844;0,0289;-0,5836;0,0134;56,35263237;37,51510675;4,96000004;
16:01:14:901;0,0289;-0,5836;0,0134;56,35263237;37,51510675;4,96000004;
16:01:14:904;0,0289;-0,5836;0,0134;56,35263237;37,51510675;4,96000004;
16:01:14:907;-0,0340;-0,7159;0,0492;56,35263237;37,51510675;4,96000004;
16:01:14:953;-0,0340;-0,7159;0,0492;56,35263237;37,51510675;4,96000004;
16:01:15:011;-0,0340;-0,7159;0,0492;56,35263237;37,51510675;4,96000004;
16:01:15:015;-0,0340;-0,7159;0,0492;56,35263237;37,51510675;4,96000004;
16:01:15:017;-0,0406;-0,6347;-0,0080;56,35263237;37,51510675;4,96000004;
16:01:15:071;-0,0406;-0,6347;-0,0080;56,35263237;37,51510675;4,96000004;
16:01:15:076;-0,0406;-0,6347;-0,0080;56,35263237;37,51510675;4,96000004;
16:01:15:079;-0,0727;-0,6315;-0,0046;56,35263237;37,51510675;4,96000004;
16:01:15:133;-0,0727;-0,6315;-0,0046;56,35263237;37,51510675;4,96000004;
16:01:15:136;-0,0727;-0,6315;-0,0046;56,35263237;37,51510675;4,96000004;
16:01:15:138;0,0264;-0,5821;-0,0026;56,35263237;37,51510675;4,96000004;
16:01:15:193;0,0264;-0,5821;-0,0026;56,35263237;37,51510675;4,96000004;
16:01:15:196;0,0264;-0,5821;-0,0026;56,35263237;37,51510675;4,96000004;
16:01:15:198;-0,0088;-0,5159;0,0732;56,35263237;37,51510675;4,96000004;
16:01:15:216;-0,0086;-0,4536;0,0656;56,35263237;37,51510675;4,96000004;
16:01:15:220;-0,0086;-0,4536;0,0656;56,35263237;37,51510675;4,96000004;
16:01:15:273;-0,0086;-0,4536;0,0656;56,35263237;37,51510675;4,96000004;
16:01:15:276;-0,0086;-0,4536;0,0656;56,35263237;37,51510675;4,96000004;
16:01:15:278;-0,0488;-0,4587;-0,0577;56,35263237;37,51510675;4,96000004;
16:01:15:290;-0,0488;-0,4587;-0,0577;56,35263237;37,51510675;4,96000004;
16:01:15:344;-0,0488;-0,4587;-0,0577;56,35263237;37,51510675;4,96000004;
16:01:15:346;-0,0488;-0,4587;-0,0577;56,35263237;37,51510675;4,96000004;
16:01:15:348;0,0183;-0,4183;0,0476;56,35263237;37,51510675;4,96000004;
16:01:15:405;0,0183;-0,4183;0,0476;56,35263237;37,51510675;4,96000004;
16:01:15:407;0,0183;-0,4183;0,0476;56,35263237;37,51510675;4,96000004;
16:01:15:409;0,0452;-0,3932;0,0777;56,35263237;37,51510675;4,96000004;
16:01:15:464;0,0452;-0,3932;0,0777;56,35263237;37,51510675;4,96000004;
16:01:15:467;0,0452;-0,3932;0,0777;56,35263237;37,51510675;4,96000004;
16:01:15:469;-0,0715;-0,3829;-0,1002;56,35263237;37,51510675;4,96000004;
16:01:15:534;-0,0715;-0,3829;-0,1002;56,35263237;37,51510675;4,96000004;
16:01:15:537;-0,0715;-0,3829;-0,1002;56,35263237;37,51510675;4,96000004;
16:01:15:539;-0,0434;-0,4124;-0,1132;56,35263237;37,51510675;4,96000004;
16:01:15:595;-0,0434;-0,4124;-0,1132;56,35263237;37,51510675;4,96000004;
16:01:15:597;-0,0434;-0,4124;-0,1132;56,35263237;37,51510675;4,96000004;
16:01:15:599;0,0155;-0,3917;0,1136;56,35263237;37,51510675;4,96000004;
16:01:15:655;0,0155;-0,3917;0,1136;56,35263237;37,51510675;4,96000004;
16:01:15:658;0,0155;-0,3917;0,1136;56,35263237;37,51510675;4,96000004;
16:01:15:660;0,0428;-0,4399;0,0973;56,35263237;37,51510675;4,96000004;
16:01:15:714;0,0428;-0,4399;0,0973;56,35263237;37,51510675;4,96000004;
16:01:15:717;0,0428;-0,4399;0,0973;56,35262216;37,51517343;4,67999983;
16:01:15:719;-0,0423;-0,4688;-0,1015;56,35262216;37,51517343;4,67999983;
16:01:15:796;-0,0423;-0,4688;-0,1015;56,35262216;37,51517343;4,67999983;
16:01:15:799;-0,0423;-0,4688;-0,1015;56,35262216;37,51517343;4,67999983;
16:01:15:801;0,0109;-0,4277;-0,1740;56,35262216;37,51517343;4,67999983;
16:01:15:856;0,0109;-0,4277;-0,1740;56,35262216;37,51517343;4,67999983;
16:01:15:859;0,0109;-0,4277;-0,1740;56,35262216;37,51517343;4,67999983;
16:01:15:861;-0,0414;-0,3065;-0,0292;56,35262216;37,51517343;4,67999983;
16:01:15:916;-0,0414;-0,3065;-0,0292;56,35262216;37,51517343;4,67999983;
16:01:15:919;-0,0627;-0,3412;0,1678;56,35262216;37,51517343;4,67999983;
16:01:15:922;-0,0627;-0,3412;0,1678;56,35262216;37,51517343;4,67999983;
16:01:15:976;-0,0627;-0,3412;0,1678;56,35262216;37,51517343;4,67999983;
16:01:15:979;-0,0627;-0,3412;0,1678;56,35262216;37,51517343;4,67999983;
16:01:15:980;0,0110;-0,3152;0,0697;56,35262216;37,51517343;4,67999983;
16:01:16:002;0,0110;-0,3152;0,0697;56,35262216;37,51517343;4,67999983;
16:01:16:005;0,0113;-0,2796;0,0620;56,35262216;37,51517343;4,67999983;
16:01:16:058;0,0113;-0,2796;0,0620;56,35262216;37,51517343;4,67999983;
16:01:16:060;0,0113;-0,2796;0,0620;56,35262216;37,51517343;4,67999983;
16:01:16:062;0,0692;-0,2837;-0,1117;56,35262216;37,51517343;4,67999983;
16:01:16:117;0,0692;-0,2837;-0,1117;56,35262216;37,51517343;4,67999983;
16:01:16:120;0,0692;-0,2837;-0,1117;56,35262216;37,51517343;4,67999983;
16:01:16:122;-0,0197;-0,2624;-0,0936;56,35262216;37,51517343;4,67999983;
16:01:16:177;0,0236;-0,2167;0,0125;56,35262216;37,51517343;4,67999983;
16:01:16:179;0,0236;-0,2167;0,0125;56,35262216;37,51517343;4,67999983;
16:01:16:180;0,0236;-0,2167;0,0125;56,35262216;37,51517343;4,67999983;
16:01:16:238;0,0236;-0,2167;0,0125;56,35262216;37,51517343;4,67999983;
16:01:16:240;0,0236;-0,2167;0,0125;56,35262216;37,51517343;4,67999983;
16:01:16:244;-0,0258;-0,2510;0,0403;56,35262216;37,51517343;4,67999983;
16:01:16:261;-0,0258;-0,2510;0,0403;56,35262216;37,51517343;4,67999983;
16:01:16:308;-0,0258;-0,2510;0,0403;56,35262216;37,51517343;4,67999983;
16:01:16:309;-0,0258;-0,2510;0,0403;56,35262216;37,51517343;4,67999983;
16:01:16:311;-0,0176;-0,1971;-0,0154;56,35262216;37,51517343;4,67999983;
16:01:16:368;-0,0176;-0,1971;-0,0154;56,35262216;37,51517343;4,67999983;
16:01:16:370;-0,0176;-0,1971;-0,0154;56,35262216;37,51517343;4,67999983;
16:01:16:371;0,0057;-0,1649;-0,1055;56,35262216;37,51517343;4,67999983;
16:01:16:429;0,0057;-0,1649;-0,1055;56,35262216;37,51517343;4,67999983;
16:01:16:432;0,0057;-0,1649;-0,1055;56,35262216;37,51517343;4,67999983;
16:01:16:433;-0,0354;-0,1303;0,0020;56,35262216;37,51517343;4,67999983;
16:01:16:489;-0,0354;-0,1303;0,0020;56,35262216;37,51517343;4,67999983;
16:01:16:491;-0,0354;-0,1303;0,0020;56,35262216;37,51517343;4,67999983;
16:01:16:493;-0,0387;-0,1182;-0,0407;56,35262216;37,51517343;4,67999983;
16:01:16:579;-0,0387;-0,1182;-0,0407;56,35262216;37,51517343;4,67999983;
16:01:16:581;-0,0387;-0,1182;-0,0407;56,35262216;37,51517343;4,67999983;
16:01:16:583;-0,0472;-0,1572;-0,0261;56,35262216;37,51517343;4,67999983;
16:01:16:639;-0,0472;-0,1572;-0,0261;56,35262216;37,51517343;4,67999983;
16:01:16:641;-0,0472;-0,1572;-0,0261;56,35262216;37,51517343;4,67999983;
16:01:16:643;-0,0303;-0,1246;0,0441;56,35262216;37,51517343;4,67999983;
16:01:16:699;-0,0303;-0,1246;0,0441;56,35262216;37,51517343;4,67999983;
16:01:16:700;-0,0303;-0,1246;0,0441;56,35261402;37,51522799;3,78999996;
16:01:16:702;0,0924;-0,1389;0,1792;56,35261402;37,51522799;3,78999996;
16:01:16:760;0,0924;-0,1389;0,1792;56,35261402;37,51522799;3,78999996;
16:01:16:762;0,0924;-0,1389;0,1792;56,35261402;37,51522799;3,78999996;
16:01:16:763;0,1977;-0,1293;0,0884;56,35261402;37,51522799;3,78999996;
16:01:16:784;0,1966;-0,1296;0,0863;56,35261402;37,51522799;3,78999996;
16:01:16:789;0,1966;-0,1296;0,0863;56,35261402;37,51522799;3,78999996;
16:01:16:818;0,1966;-0,1296;0,0863;56,35261402;37,51522799;3,78999996;
16:01:16:871;0,1966;-0,1296;0,0863;56,35261402;37,51522799;3,78999996;
16:01:16:875;0,1966;-0,1296;0,0863;56,35261402;37,51522799;3,78999996;
16:01:16:877;-0,1250;-0,0992;-0,1414;56,35261402;37,51522799;3,78999996;
16:01:16:932;-0,1494;-0,0774;-0,0452;56,35261402;37,51522799;3,78999996;
16:01:16:936;-0,1494;-0,0774;-0,0452;56,35261402;37,51522799;3,78999996;
16:01:16:937;-0,1494;-0,0774;-0,0452;56,35261402;37,51522799;3,78999996;
16:01:16:994;-0,1494;-0,0774;-0,0452;56,35261402;37,51522799;3,78999996;
16:01:16:996;-0,1494;-0,0774;-0,0452;56,35261402;37,51522799;3,78999996;
16:01:16:999;-0,0840;-0,0332;0,0373;56,35261402;37,51522799;3,78999996;
16:01:17:037;0,0543;-0,0475;0,0928;56,35261402;37,51522799;3,78999996;
16:01:17:041;0,0543;-0,0475;0,0928;56,35261402;37,51522799;3,78999996;
16:01:17:044;0,0543;-0,0475;0,0928;56,35261402;37,51522799;3,78999996;
16:01:17:091;0,0543;-0,0475;0,0928;56,35261402;37,51522799;3,78999996;
16:01:17:094;0,0543;-0,0475;0,0928;56,35261402;37,51522799;3,78999996;
16:01:17:096;0,0627;0,0020;-0,0337;56,35261402;37,51522799;3,78999996;
16:01:17:153;0,0627;0,0020;-0,0337;56,35261402;37,51522799;3,78999996;
16:01:17:156;0,0627;0,0020;-0,0337;56,35261402;37,51522799;3,78999996;
16:01:17:158;-0,0059;-0,0850;-0,0122;56,35261402;37,51522799;3,78999996;
16:01:17:213;-0,0059;-0,0850;-0,0122;56,35261402;37,51522799;3,78999996;
16:01:17:216;-0,0059;-0,0850;-0,0122;56,35261402;37,51522799;3,78999996;
16:01:17:217;0,0462;-0,1534;-0,0637;56,35261402;37,51522799;3,78999996;
16:01:17:274;0,0462;-0,1534;-0,0637;56,35261402;37,51522799;3,78999996;
16:01:17:277;0,0462;-0,1534;-0,0637;56,35261402;37,51522799;3,78999996;
16:01:17:280;-0,0239;-0,1147;0,0661;56,35261402;37,51522799;3,78999996;
16:01:17:330;-0,0239;-0,1147;0,0661;56,35261402;37,51522799;3,78999996;
16:01:17:333;-0,0227;-0,1033;0,0586;56,35261402;37,51522799;3,78999996;
16:01:17:384;-0,0227;-0,1033;0,0586;56,35261402;37,51522799;3,78999996;
16:01:17:387;-0,0227;-0,1033;0,0586;56,35261402;37,51522799;3,78999996;
16:01:17:389;-0,0602;-0,1067;0,0768;56,35261402;37,51522799;3,78999996;
16:01:17:445;0,0105;-0,1319;-0,0517;56,35261402;37,51522799;3,78999996;
16:01:17:449;0,0105;-0,1319;-0,0517;56,35261402;37,51522799;3,78999996;
16:01:17:450;0,0105;-0,1319;-0,0517;56,35261402;37,51522799;3,78999996;
16:01:17:505;0,0105;-0,1319;-0,0517;56,35261402;37,51522799;3,78999996;
16:01:17:509;0,0105;-0,1319;-0,0517;56,35261402;37,51522799;3,78999996;
16:01:17:513;-0,0125;-0,0687;-0,0266;56,35261402;37,51522799;3,78999996;
16:01:17:559;-0,0125;-0,0687;-0,0266;56,35261402;37,51522799;3,78999996;
16:01:17:563;-0,0125;-0,0687;-0,0266;56,35261402;37,51522799;3,78999996;
16:01:17:565;0,0394;-0,0102;0,0149;56,35261402;37,51522799;3,78999996;
16:01:17:615;0,0394;-0,0102;0,0149;56,35261402;37,51522799;3,78999996;
16:01:17:617;0,0394;-0,0102;0,0149;56,35261402;37,51522799;3,78999996;
16:01:17:618;0,0231;-0,0007;-0,0543;56,35261402;37,51522799;3,78999996;
16:01:17:676;0,0231;-0,0007;-0,0543;56,35261402;37,51522799;3,78999996;
16:01:17:679;-0,0819;0,0982;-0,0048;56,35260712;37,51526544;2,65000010;
16:01:17:682;-0,0819;0,0982;-0,0048;56,35260712;37,51526544;2,65000010;
16:01:17:735;-0,0819;0,0982;-0,0048;56,35260712;37,51526544;2,65000010;
16:01:17:736;-0,0819;0,0982;-0,0048;56,35260712;37,51526544;2,65000010;
16:01:17:738;0,0244;0,1822;0,0899;56,35260712;37,51526544;2,65000010;
16:01:17:795;0,0244;0,1822;0,0899;56,35260712;37,51526544;2,65000010;
16:01:17:797;0,0850;0,3379;0,0016;56,35260712;37,51526544;2,65000010;
16:01:17:798;0,0850;0,3379;0,0016;56,35260712;37,51526544;2,65000010;
16:01:17:822;0,0850;0,3379;0,0016;56,35260712;37,51526544;2,65000010;
16:01:17:897;0,0850;0,3379;0,0016;56,35260712;37,51526544;2,65000010;
16:01:17:900;0,0850;0,3379;0,0016;56,35260712;37,51526544;2,65000010;
16:01:17:902;-0,0034;0,7757;-0,1426;56,35260712;37,51526544;2,65000010;
16:01:17:957;-0,0034;0,7757;-0,1426;56,35260712;37,51526544;2,65000010;
16:01:17:961;-0,0034;0,7757;-0,1426;56,35260712;37,51526544;2,65000010;
16:01:17:963;-0,1074;0,8584;-0,0177;56,35260712;37,51526544;2,65000010;
16:01:18:017;-0,1074;0,8584;-0,0177;56,35260712;37,51526544;2,65000010;
16:01:18:020;-0,1074;0,8584;-0,0177;56,35260712;37,51526544;2,65000010;
16:01:18:021;0,0133;0,9034;0,0285;56,35260712;37,51526544;2,65000010;
16:01:18:077;0,0133;0,9034;0,0285;56,35260712;37,51526544;2,65000010;
16:01:18:080;0,0133;0,9034;0,0285;56,35260712;37,51526544;2,65000010;
16:01:18:082;-0,0402;0,9794;-0,0386;56,35260712;37,51526544;2,65000010;
16:01:18:138;-0,0402;0,9794;-0,0386;56,35260712;37,51526544;2,65000010;
16:01:18:142;-0,0402;0,9794;-0,0386;56,35260712;37,51526544;2,65000010;
16:01:18:144;0,0245;1,0226;-0,0100;56,35260712;37,51526544;2,65000010;
16:01:18:198;0,0245;1,0226;-0,0100;56,35260712;37,51526544;2,65000010;
16:01:18:201;0,0245;1,0226;-0,0100;56,35260712;37,51526544;2,65000010;
16:01:18:204;0,0128;0,8729;-0,0712;56,35260712;37,51526544;2,65000010;
16:01:18:259;0,0128;0,8729;-0,0712;56,35260712;37,51526544;2,65000010;
16:01:18:262;0,0128;0,8729;-0,0712;56,35260712;37,51526544;2,65000010;
16:01:18:264;0,0739;0,7690;-0,0029;56,35260712;37,51526544;2,65000010;
16:01:18:319;0,0739;0,7690;-0,0029;56,35260712;37,51526544;2,65000010;
16:01:18:321;0,0739;0,7690;-0,0029;56,35260712;37,51526544;2,65000010;
16:01:18:322;0,0869;0,7029;-0,0245;56,35260712;37,51526544;2,65000010;
16:01:18:352;0,0869;0,7029;-0,0245;56,35260712;37,51526544;2,65000010;
16:01:18:354;0,0783;0,6242;-0,0219;56,35260712;37,51526544;2,65000010;
16:01:18:409;0,0783;0,6242;-0,0219;56,35260712;37,51526544;2,65000010;
16:01:18:412;0,0783;0,6242;-0,0219;56,35260712;37,51526544;2,65000010;
16:01:18:414;-0,0296;0,5300;-0,0616;56,35260712;37,51526544;2,65000010;
16:01:18:469;-0,0296;0,5300;-0,0616;56,35260712;37,51526544;2,65000010;
16:01:18:472;-0,0296;0,5300;-0,0616;56,35260712;37,51526544;2,65000010;
16:01:18:475;0,0108;0,5123;-0,0172;56,35260712;37,51526544;2,65000010;
16:01:18:531;-0,0312;0,4640;-0,0433;56,35260712;37,51526544;2,65000010;
16:01:18:536;-0,0312;0,4640;-0,0433;56,35260712;37,51526544;2,65000010;
16:01:18:538;-0,0312;0,4640;-0,0433;56,35260712;37,51526544;2,65000010;
16:01:18:588;-0,0312;0,4640;-0,0433;56,35260712;37,51526544;2,65000010;
16:01:18:590;-0,0312;0,4640;-0,0433;56,35260712;37,51526544;2,65000010;
16:01:18:593;-0,0079;0,4276;0,0562;56,35260712;37,51526544;2,65000010;
16:01:18:656;-0,0614;0,4019;0,0346;56,35260712;37,51526544;2,65000010;
16:01:18:658;-0,0614;0,4019;0,0346;56,35260219;37,51529034;1,79999995;
16:01:18:660;-0,0614;0,4019;0,0346;56,35260219;37,51529034;1,79999995;
16:01:18:710;-0,0614;0,4019;0,0346;56,35260219;37,51529034;1,79999995;
16:01:18:711;-0,0614;0,4019;0,0346;56,35260219;37,51529034;1,79999995;
16:01:18:713;0,0453;0,3992;-0,0237;56,35260219;37,51529034;1,79999995;
16:01:18:771;0,0453;0,3992;-0,0237;56,35260219;37,51529034;1,79999995;
16:01:18:775;0,0453;0,3992;-0,0237;56,35260219;37,51529034;1,79999995;
16:01:18:777;-0,0259;0,3401;-0,0796;56,35260219;37,51529034;1,79999995;
16:01:18:832;-0,0259;0,3401;-0,0796;56,35260219;37,51529034;1,79999995;
16:01:18:835;-0,0259;0,3401;-0,0796;56,35260219;37,51529034;1,79999995;
16:01:18:836;0,0488;0,3347;0,0578;56,35260219;37,51529034;1,79999995;
16:01:18:850;0,0488;0,3347;0,0578;56,35260219;37,51529034;1,79999995;
16:01:18:922;0,0488;0,3347;0,0578;56,35260219;37,51529034;1,79999995;
16:01:18:927;0,0488;0,3347;0,0578;56,35260219;37,51529034;1,79999995;
16:01:18:929;0,0521;0,3135;-0,0122;56,35260219;37,51529034;1,79999995;
16:01:18:982;-0,0455;0,2694;-0,0551;56,35260219;37,51529034;1,79999995;
16:01:18:986;-0,0455;0,2694;-0,0551;56,35260219;37,51529034;1,79999995;
16:01:18:988;-0,0455;0,2694;-0,0551;56,35260219;37,51529034;1,79999995;
16:01:19:042;-0,0455;0,2694;-0,0551;56,35260219;37,51529034;1,79999995;
16:01:19:046;-0,0455;0,2694;-0,0551;56,35260219;37,51529034;1,79999995;
16:01:19:048;0,0091;0,2288;0,0053;56,35260219;37,51529034;1,79999995;
16:01:19:101;0,0091;0,2288;0,0053;56,35260219;37,51529034;1,79999995;
16:01:19:104;0,0091;0,2288;0,0053;56,35260219;37,51529034;1,79999995;
16:01:19:106;-0,0375;0,2155;0,0093;56,35260219;37,51529034;1,79999995;
16:01:19:175;-0,0375;0,2155;0,0093;56,35260219;37,51529034;1,79999995;
16:01:19:178;-0,0375;0,2155;0,0093;56,35260219;37,51529034;1,79999995;
16:01:19:180;0,0224;0,2120;0,0404;56,35260219;37,51529034;1,79999995;
16:01:19:235;0,0224;0,2120;0,0404;56,35260219;37,51529034;1,79999995;
16:01:19:237;0,0224;0,2120;0,0404;56,35260219;37,51529034;1,79999995;
16:01:19:239;0,0408;0,1641;-0,0227;56,35260219;37,51529034;1,79999995;
16:01:19:295;0,0264;0,1547;-0,0517;56,35260219;37,51529034;1,79999995;
16:01:19:298;0,0264;0,1547;-0,0517;56,35260219;37,51529034;1,79999995;
16:01:19:300;0,0264;0,1547;-0,0517;56,35260219;37,51529034;1,79999995;
16:01:19:355;0,0264;0,1547;-0,0517;56,35260219;37,51529034;1,79999995;
16:01:19:359;0,0264;0,1547;-0,0517;56,35260219;37,51529034;1,79999995;
16:01:19:361;-0,0530;0,1345;-0,0791;56,35260219;37,51529034;1,79999995;
16:01:19:376;-0,0469;0,1208;-0,0702;56,35260219;37,51529034;1,79999995;
16:01:19:379;-0,0469;0,1208;-0,0702;56,35260219;37,51529034;1,79999995;
16:01:19:435;-0,0469;0,1208;-0,0702;56,35260219;37,51529034;1,79999995;
16:01:19:437;-0,0469;0,1208;-0,0702;56,35260219;37,51529034;1,79999995;
16:01:19:439;-0,0556;0,0940;0,0486;56,35260219;37,51529034;1,79999995;
16:01:19:495;-0,0556;0,0940;0,0486;56,35260219;37,51529034;1,79999995;
16:01:19:498;-0,0556;0,0940;0,0486;56,35260219;37,51529034;1,79999995;
16:01:19:501;0,0298;0,0608;0,1261;56,35260219;37,51529034;1,79999995;
16:01:19:555;0,0298;0,0608;0,1261;56,35260219;37,51529034;1,79999995;
16:01:19:559;0,0298;0,0608;0,1261;56,35260219;37,51529034;1,79999995;
16:01:19:562;0,0004;0,0837;0,0183;56,35260219;37,51529034;1,79999995;
16:01:19:616;0,0004;0,0837;0,0183;56,35260219;37,51529034;1,79999995;
16:01:19:618;0,0004;0,0837;0,0183;56,35260219;37,51529034;1,79999995;
16:01:19:620;0,0576;0,0928;-0,0845;56,35260219;37,51529034;1,79999995;
16:01:19:628;0,0576;0,0928;-0,0845;56,35260219;37,51529034;1,79999995;
16:01:19:685;0,0576;0,0928;-0,0845;56,35260219;37,51529034;1,79999995;
16:01:19:687;0,0576;0,0928;-0,0845;56,35259590;37,51531712;1,86000001;
16:01:19:688;0,0893;0,0517;0,0910;56,35259590;37,51531712;1,86000001;
16:01:19:745;0,0893;0,0517;0,0910;56,35259590;37,51531712;1,86000001;
16:01:19:748;0,0893;0,0517;0,0910;56,35259590;37,51531712;1,86000001;
16:01:19:749;-0,0314;0,0359;0,0308;56,35259590;37,51531712;1,86000001;
16:01:19:807;-0,0314;0,0359;0,0308;56,35259590;37,51531712;1,86000001;
16:01:19:811;-0,0314;0,0359;0,0308;56,35259590;37,51531712;1,86000001;
16:01:19:813;-0,0332;0,0216;0,0108;56,35259590;37,51531712;1,86000001;
16:01:19:868;-0,0332;0,0216;0,0108;56,35259590;37,51531712;1,86000001;
16:01:19:871;-0,0332;0,0216;0,0108;56,35259590;37,51531712;1,86000001;
16:01:19:872;-0,0776;0,0321;-0,0633;56,35259590;37,51531712;1,86000001;
16:01:19:947;-0,0776;0,0321;-0,0633;56,35259590;37,51531712;1,86000001;
16:01:19:950;-0,0164;0,0372;-0,0322;56,35259590;37,51531712;1,86000001;
16:01:19:953;-0,0164;0,0372;-0,0322;56,35259590;37,51531712;1,86000001;
16:01:20:007;-0,0164;0,0372;-0,0322;56,35259590;37,51531712;1,86000001;
16:01:20:010;-0,0164;0,0372;-0,0322;56,35259590;37,51531712;1,86000001;
16:01:20:012;0,0080;0,0495;0,0173;56,35259590;37,51531712;1,86000001;
16:01:20:067;0,0080;0,0495;0,0173;56,35259590;37,51531712;1,86000001;
16:01:20:069;0,0080;0,0495;0,0173;56,35259590;37,51531712;1,86000001;
16:01:20:071;-0,0360;0,0304;-0,0209;56,35259590;37,51531712;1,86000001;
16:01:20:130;0,0615;0,0195;0,0524;56,35259590;37,51531712;1,86000001;
16:01:20:133;0,0615;0,0195;0,0524;56,35259590;37,51531712;1,86000001;
16:01:20:136;0,0615;0,0195;0,0524;56,35259590;37,51531712;1,86000001;
16:01:20:147;0,0541;0,0191;0,0468;56,35259590;37,51531712;1,86000001;
16:01:20:152;0,0541;0,0191;0,0468;56,35259590;37,51531712;1,86000001;
16:01:20:209;0,0541;0,0191;0,0468;56,35259590;37,51531712;1,86000001;
16:01:20:212;0,0541;0,0191;0,0468;56,35259590;37,51531712;1,86000001;
16:01:20:215;0,0676;0,0160;0,0466;56,35259590;37,51531712;1,86000001;
16:01:20:269;0,0676;0,0160;0,0466;56,35259590;37,51531712;1,86000001;
16:01:20:272;0,0676;0,0160;0,0466;56,35259590;37,51531712;1,86000001;
16:01:20:274;0,0635;0,0180;0,0452;56,35259590;37,51531712;1,86000001;
16:01:20:329;0,0635;0,0180;0,0452;56,35259590;37,51531712;1,86000001;
16:01:20:332;0,0635;0,0180;0,0452;56,35259590;37,51531712;1,86000001;
16:01:20:334;-0,0171;0,0318;-0,0991;56,35259590;37,51531712;1,86000001;
16:01:20:389;-0,0171;0,0318;-0,0991;56,35259590;37,51531712;1,86000001;
16:01:20:391;-0,0895;0,0100;-0,0568;56,35259590;37,51531712;1,86000001;
16:01:20:395;-0,0895;0,0100;-0,0568;56,35259590;37,51531712;1,86000001;
16:01:20:408;-0,0895;0,0100;-0,0568;56,35259590;37,51531712;1,86000001;
16:01:20:470;-0,0895;0,0100;-0,0568;56,35259590;37,51531712;1,86000001;
16:01:20:472;-0,0895;0,0100;-0,0568;56,35259590;37,51531712;1,86000001;
16:01:20:483;-0,0385;-0,0057;-0,0101;56,35259590;37,51531712;1,86000001;
16:01:20:530;-0,0385;-0,0057;-0,0101;56,35259590;37,51531712;1,86000001;
16:01:20:533;-0,0385;-0,0057;-0,0101;56,35259590;37,51531712;1,86000001;
16:01:20:535;0,0328;-0,0004;0,0689;56,35259590;37,51531712;1,86000001;
16:01:20:591;0,0328;-0,0004;0,0689;56,35259590;37,51531712;1,86000001;
16:01:20:594;0,0328;-0,0004;0,0689;56,35259590;37,51531712;1,86000001;
16:01:20:596;0,0580;-0,0282;0,0610;56,35259590;37,51531712;1,86000001;
16:01:20:651;0,0580;-0,0282;0,0610;56,35259590;37,51531712;1,86000001;
16:01:20:654;0,0580;-0,0282;0,0610;56,35259590;37,51531712;1,86000001;
16:01:20:658;0,0397;0,0050;-0,0009;56,35259590;37,51531712;1,86000001;
16:01:20:730;0,0397;0,0050;-0,0009;56,35259590;37,51531712;1,86000001;
16:01:20:732;0,0397;0,0050;-0,0009;56,35259061;37,51534678;1,89999998;
16:01:20:734;-0,0263;0,0277;-0,0799;56,35259061;37,51534678;1,89999998;
16:01:20:792;-0,0263;0,0277;-0,0799;56,35259061;37,51534678;1,89999998;
16:01:20:795;-0,0263;0,0277;-0,0799;56,35259061;37,51534678;1,89999998;
16:01:20:797;-0,1092;-0,0010;-0,0861;56,35259061;37,51534678;1,89999998;
16:01:20:852;-0,1092;-0,0010;-0,0861;56,35259061;37,51534678;1,89999998;
16:01:20:856;-0,1092;-0,0010;-0,0861;56,35259061;37,51534678;1,89999998;
16:01:20:859;0,0037;-0,0171;0,0842;56,35259061;37,51534678;1,89999998;
16:01:20:901;0,0037;-0,0171;0,0842;56,35259061;37,51534678;1,89999998;
16:01:20:905;0,0037;-0,0171;0,0842;56,35259061;37,51534678;1,89999998;
16:01:20:907;0,0459;0,0036;0,0892;56,35259061;37,51534678;1,89999998;
16:01:20:984;0,0538;0,0016;-0,0321;56,35259061;37,51534678;1,89999998;
16:01:20:987;0,0538;0,0016;-0,0321;56,35259061;37,51534678;1,89999998;
16:01:20:989;0,0538;0,0016;-0,0321;56,35259061;37,51534678;1,89999998;
16:01:21:045;0,0538;0,0016;-0,0321;56,35259061;37,51534678;1,89999998;
16:01:21:048;0,0538;0,0016;-0,0321;56,35259061;37,51534678;1,89999998;
16:01:21:051;0,0602;-0,0008;-0,0573;56,35259061;37,51534678;1,89999998;
16:01:21:104;0,0602;-0,0008;-0,0573;56,35259061;37,51534678;1,89999998;
16:01:21:106;0,0602;-0,0008;-0,0573;56,35259061;37,51534678;1,89999998;
16:01:21:109;-0,0273;0,0207;-0,0304;56,35259061;37,51534678;1,89999998;
16:01:21:164;-0,0273;0,0207;-0,0304;56,35259061;37,51534678;1,89999998;
16:01:21:167;-0,0273;0,0207;-0,0304;56,35259061;37,51534678;1,89999998;
16:01:21:168;-0,0556;0,0093;0,0194;56,35259061;37,51534678;1,89999998;
16:01:21:187;-0,0497;0,0100;0,0174;56,35259061;37,51534678;1,89999998;
16:01:21:190;-0,0497;0,0100;0,0174;56,35259061;37,51534678;1,89999998;
16:01:21:245;-0,0200;0,0154;0,0285;56,35259061;37,51534678;1,89999998;
16:01:21:249;-0,0200;0,0154;0,0285;56,35259061;37,51534678;1,89999998;
16:01:21:252;-0,0200;0,0154;0,0285;56,35259061;37,51534678;1,89999998;
16:01:21:305;-0,0200;0,0154;0,0285;56,35259061;37,51534678;1,89999998;
16:01:21:308;-0,0200;0,0154;0,0285;56,35259061;37,51534678;1,89999998;
16:01:21:310;-0,0603;-0,0009;-0,0346;56,35259061;37,51534678;1,89999998;
16:01:21:365;-0,0603;-0,0009;-0,0346;56,35259061;37,51534678;1,89999998;
16:01:21:367;-0,0603;-0,0009;-0,0346;56,35259061;37,51534678;1,89999998;
16:01:21:369;0,0052;0,0060;0,0074;56,35259061;37,51534678;1,89999998;
16:01:21:414;0,0052;0,0060;0,0074;56,35259061;37,51534678;1,89999998;
16:01:21:416;0,0052;0,0060;0,0074;56,35259061;37,51534678;1,89999998;
16:01:21:419;0,0185;-0,0056;-0,0102;56,35259061;37,51534678;1,89999998;
16:01:21:448;0,0185;-0,0056;-0,0102;56,35259061;37,51534678;1,89999998;
16:01:21:505;0,0185;-0,0056;-0,0102;56,35259061;37,51534678;1,89999998;
16:01:21:508;0,0185;-0,0056;-0,0102;56,35259061;37,51534678;1,89999998;
16:01:21:509;0,1316;-0,0217;0,0474;56,35259061;37,51534678;1,89999998;
16:01:21:565;0,1316;-0,0217;0,0474;56,35259061;37,51534678;1,89999998;
16:01:21:568;0,1316;-0,0217;0,0474;56,35259061;37,51534678;1,89999998;
16:01:21:569;0,0099;0,0099;-0,0737;56,35259061;37,51534678;1,89999998;
16:01:21:627;0,0099;0,0099;-0,0737;56,35259061;37,51534678;1,89999998;
16:01:21:629;0,0099;0,0099;-0,0737;56,35259061;37,51534678;1,89999998;
16:01:21:631;-0,0933;0,0137;-0,0821;56,35259061;37,51534678;1,89999998;
16:01:21:685;-0,0933;0,0137;-0,0821;56,35259061;37,51534678;1,89999998;
16:01:21:687;-0,0933;0,0137;-0,0821;56,35258946;37,51537487;1,95000005;
16:01:21:688;-0,0439;0,0010;0,0303;56,35258946;37,51537487;1,95000005;
16:01:21:767;-0,0439;0,0010;0,0303;56,35258946;37,51537487;1,95000005;
16:01:21:771;-0,0439;0,0010;0,0303;56,35258946;37,51537487;1,95000005;
16:01:21:773;-0,0351;-0,0336;0,0601;56,35258946;37,51537487;1,95000005;
16:01:21:828;-0,0351;-0,0336;0,0601;56,35258946;37,51537487;1,95000005;
16:01:21:830;-0,0351;-0,0336;0,0601;56,35258946;37,51537487;1,95000005;
16:01:21:833;0,0225;-0,0184;0,0559;56,35258946;37,51537487;1,95000005;
16:01:21:888;0,0225;-0,0184;0,0559;56,35258946;37,51537487;1,95000005;
16:01:21:891;0,0225;-0,0184;0,0559;56,35258946;37,51537487;1,95000005;
16:01:21:893;0,0576;-0,0233;0,0201;56,35258946;37,51537487;1,95000005;
16:01:21:926;0,0576;-0,0233;0,0201;56,35258946;37,51537487;1,95000005;
16:01:21:928;0,0576;-0,0233;0,0201;56,35258946;37,51537487;1,95000005;
16:01:21:929;0,0800;-0,0328;-0,0192;56,35258946;37,51537487;1,95000005;
16:01:21:971;0,0800;-0,0328;-0,0192;56,35258946;37,51537487;1,95000005;
16:01:21:974;0,0735;-0,0280;-0,0171;56,35258946;37,51537487;1,95000005;
16:01:22:028;0,0735;-0,0280;-0,0171;56,35258946;37,51537487;1,95000005;
16:01:22:031;0,0735;-0,0280;-0,0171;56,35258946;37,51537487;1,95000005;
16:01:22:033;0,0273;0,0086;-0,0386;56,35258946;37,51537487;1,95000005;
16:01:22:089;0,0273;0,0086;-0,0386;56,35258946;37,51537487;1,95000005;
16:01:22:091;0,0273;0,0086;-0,0386;56,35258946;37,51537487;1,95000005;
16:01:22:094;-0,1225;-0,0111;-0,0894;56,35258946;37,51537487;1,95000005;
16:01:22:149;-0,1225;-0,0111;-0,0894;56,35258946;37,51537487;1,95000005;
16:01:22:152;-0,1225;-0,0111;-0,0894;56,35258946;37,51537487;1,95000005;
16:01:22:154;-0,0930;0,0130;0,0234;56,35258946;37,51537487;1,95000005;
16:01:22:210;-0,0930;0,0130;0,0234;56,35258946;37,51537487;1,95000005;
16:01:22:212;-0,0930;0,0130;0,0234;56,35258946;37,51537487;1,95000005;
16:01:22:214;0,0369;0,0282;0,0706;56,35258946;37,51537487;1,95000005;
16:01:22:236;0,0369;0,0282;0,0706;56,35258946;37,51537487;1,95000005;
16:01:22:290;0,0369;0,0282;0,0706;56,35258946;37,51537487;1,95000005;
16:01:22:292;0,0369;0,0282;0,0706;56,35258946;37,51537487;1,95000005;
16:01:22:294;0,0695;0,0126;-0,0396;56,35258946;37,51537487;1,95000005;
16:01:22:350;0,0695;0,0126;-0,0396;56,35258946;37,51537487;1,95000005;
16:01:22:353;0,0695;0,0126;-0,0396;56,35258946;37,51537487;1,95000005;
16:01:22:355;-0,0083;0,0065;-0,0828;56,35258946;37,51537487;1,95000005;
16:01:22:411;-0,0083;0,0065;-0,0828;56,35258946;37,51537487;1,95000005;
16:01:22:414;-0,0083;0,0065;-0,0828;56,35258946;37,51537487;1,95000005;
16:01:22:415;-0,0088;-0,0248;0,0348;56,35258946;37,51537487;1,95000005;
16:01:22:490;-0,0088;-0,0248;0,0348;56,35258946;37,51537487;1,95000005;
16:01:22:493;-0,0088;-0,0248;0,0348;56,35258946;37,51537487;1,95000005;
16:01:22:495;-0,0480;0,0058;0,1150;56,35258946;37,51537487;1,95000005;
16:01:22:551;-0,0480;0,0058;0,1150;56,35258946;37,51537487;1,95000005;
16:01:22:554;-0,0480;0,0058;0,1150;56,35258946;37,51537487;1,95000005;
16:01:22:557;-0,0726;-0,0228;0,0307;56,35258946;37,51537487;1,95000005;
16:01:22:612;-0,0726;-0,0228;0,0307;56,35258946;37,51537487;1,95000005;
16:01:22:615;-0,0726;-0,0228;0,0307;56,35258946;37,51537487;1,95000005;
16:01:22:617;0,0332;-0,0152;-0,0014;56,35258946;37,51537487;1,95000005;
16:01:22:672;0,0332;-0,0152;-0,0014;56,35258946;37,51537487;1,95000005;
16:01:22:676;0,0679;-0,0276;0,0160;56,35258946;37,51537487;1,95000005;
16:01:22:678;0,0679;-0,0276;0,0160;56,35258946;37,51537487;1,95000005;
16:01:22:730;0,0679;-0,0276;0,0160;56,35258946;37,51537487;1,95000005;
16:01:22:732;0,0679;-0,0276;0,0160;56,35258876;37,51540317;1,98000002;
16:01:22:733;0,0410;-0,0213;-0,0146;56,35258876;37,51540317;1,98000002;
16:01:22:750;0,0410;-0,0213;-0,0146;56,35258876;37,51540317;1,98000002;
16:01:22:751;0,0391;-0,0179;-0,0131;56,35258876;37,51540317;1,98000002;
16:01:22:812;0,0391;-0,0179;-0,0131;56,35258876;37,51540317;1,98000002;
16:01:22:815;0,0391;-0,0179;-0,0131;56,35258876;37,51540317;1,98000002;
16:01:22:817;0,0311;0,0060;-0,0319;56,35258876;37,51540317;1,98000002;
16:01:22:872;0,0311;0,0060;-0,0319;56,35258876;37,51540317;1,98000002;
16:01:22:874;0,0311;0,0060;-0,0319;56,35258876;37,51540317;1,98000002;
16:01:22:876;-0,0225;0,0370;-0,0640;56,35258876;37,51540317;1,98000002;
16:01:22:933;-0,0225;0,0370;-0,0640;56,35258876;37,51540317;1,98000002;
16:01:22:935;-0,0225;0,0370;-0,0640;56,35258876;37,51540317;1,98000002;
16:01:22:937;-0,0564;0,0746;-0,0474;56,35258876;37,51540317;1,98000002;
16:01:22:950;-0,0564;0,0746;-0,0474;56,35258876;37,51540317;1,98000002;
16:01:23:003;-0,0564;0,0746;-0,0474;56,35258876;37,51540317;1,98000002;
16:01:23:006;-0,0564;0,0746;-0,0474;56,35258876;37,51540317;1,98000002;
16:01:23:007;-0,0653;0,1388;0,0301;56,35258876;37,51540317;1,98000002;
16:01:23:064;-0,0653;0,1388;0,0301;56,35258876;37,51540317;1,98000002;
16:01:23:067;-0,0653;0,1388;0,0301;56,35258876;37,51540317;1,98000002;
16:01:23:069;0,0121;0,1315;0,0289;56,35258876;37,51540317;1,98000002;
16:01:23:125;0,0121;0,1315;0,0289;56,35258876;37,51540317;1,98000002;
16:01:23:127;0,0121;0,1315;0,0289;56,35258876;37,51540317;1,98000002;
16:01:23:129;0,1177;0,1545;0,0609;56,35258876;37,51540317;1,98000002;
16:01:23:184;0,1177;0,1545;0,0609;56,35258876;37,51540317;1,98000002;
16:01:23:187;0,1177;0,1545;0,0609;56,35258876;37,51540317;1,98000002;
16:01:23:189;0,0350;0,1449;0,0066;56,35258876;37,51540317;1,98000002;
16:01:23:245;0,0350;0,1449;0,0066;56,35258876;37,51540317;1,98000002;
16:01:23:247;0,0350;0,1449;0,0066;56,35258876;37,51540317;1,98000002;
16:01:23:249;-0,0232;0,1397;-0,0167;56,35258876;37,51540317;1,98000002;
16:01:23:324;-0,0232;0,1397;-0,0167;56,35258876;37,51540317;1,98000002;
16:01:23:327;-0,0232;0,1397;-0,0167;56,35258876;37,51540317;1,98000002;
16:01:23:329;-0,1029;0,1318;-0,0483;56,35258876;37,51540317;1,98000002;
16:01:23:385;-0,1029;0,1318;-0,0483;56,35258876;37,51540317;1,98000002;
16:01:23:387;-0,1029;0,1318;-0,0483;56,35258876;37,51540317;1,98000002;
16:01:23:389;-0,0395;0,1081;-0,0773;56,35258876;37,51540317;1,98000002;
16:01:23:445;-0,0395;0,1081;-0,0773;56,35258876;37,51540317;1,98000002;
16:01:23:449;0,0425;0,1076;-0,0228;56,35258876;37,51540317;1,98000002;
16:01:23:451;0,0425;0,1076;-0,0228;56,35258876;37,51540317;1,98000002;
16:01:23:516;0,0425;0,1076;-0,0228;56,35258876;37,51540317;1,98000002;
16:01:23:518;0,0425;0,1076;-0,0228;56,35258876;37,51540317;1,98000002;
16:01:23:520;0,0507;0,0734;0,0805;56,35258876;37,51540317;1,98000002;
16:01:23:576;-0,0030;0,0867;0,0783;56,35258876;37,51540317;1,98000002;
16:01:23:579;-0,0030;0,0867;0,0783;56,35258876;37,51540317;1,98000002;
16:01:23:581;-0,0030;0,0867;0,0783;56,35258876;37,51540317;1,98000002;
16:01:23:637;-0,0030;0,0867;0,0783;56,35258876;37,51540317;1,98000002;
16:01:23:639;-0,0030;0,0867;0,0783;56,35258876;37,51540317;1,98000002;
16:01:23:641;0,0371;0,0833;-0,0422;56,35258876;37,51540317;1,98000002;
16:01:23:696;0,0371;0,0833;-0,0422;56,35258876;37,51540317;1,98000002;
16:01:23:698;0,0371;0,0833;-0,0422;56,35258521;37,51543282;2,09999990;
16:01:23:700;0,0022;0,0561;-0,0633;56,35258521;37,51543282;2,09999990;
16:01:23:756;0,0022;0,0561;-0,0633;56,35258521;37,51543282;2,09999990;
16:01:23:758;0,0022;0,0561;-0,0633;56,35258521;37,51543282;2,09999990;
16:01:23:759;-0,0716;0,0422;0,0390;56,35258521;37,51543282;2,09999990;
16:01:23:779;-0,0716;0,0422;0,0390;56,35258521;37,51543282;2,09999990;
16:01:23:782;-0,0626;0,0384;0,0347;56,35258521;37,51543282;2,09999990;
16:01:23:837;-0,0626;0,0384;0,0347;56,35258521;37,51543282;2,09999990;
16:01:23:840;-0,0626;0,0384;0,0347;56,35258521;37,51543282;2,09999990;
16:01:23:842;0,0130;0,0541;0,0517;56,35258521;37,51543282;2,09999990;
16:01:23:897;0,0130;0,0541;0,0517;56,35258521;37,51543282;2,09999990;
16:01:23:900;0,0130;0,0541;0,0517;56,35258521;37,51543282;2,09999990;
16:01:23:902;0,0163;0,0338;-0,0298;56,35258521;37,51543282;2,09999990;
16:01:23:956;0,0163;0,0338;-0,0298;56,35258521;37,51543282;2,09999990;
16:01:23:962;0,0214;0,0380;-0,0722;56,35258521;37,51543282;2,09999990;
16:01:23:965;0,0214;0,0380;-0,0722;56,35258521;37,51543282;2,09999990;
16:01:23:972;0,0214;0,0380;-0,0722;56,35258521;37,51543282;2,09999990;
16:01:24:029;0,0214;0,0380;-0,0722;56,35258521;37,51543282;2,09999990;
16:01:24:031;0,0214;0,0380;-0,0722;56,35258521;37,51543282;2,09999990;
16:01:24:033;-0,0133;0,0276;-0,0076;56,35258521;37,51543282;2,09999990;
16:01:24:099;-0,0133;0,0276;-0,0076;56,35258521;37,51543282;2,09999990;
16:01:24:101;-0,0133;0,0276;-0,0076;56,35258521;37,51543282;2,09999990;
16:01:24:103;0,0347;0,0199;0,0700;56,35258521;37,51543282;2,09999990;
16:01:24:159;0,0347;0,0199;0,0700;56,35258521;37,51543282;2,09999990;
16:01:24:161;0,0347;0,0199;0,0700;56,35258521;37,51543282;2,09999990;
16:01:24:164;0,0276;0,0240;-0,0005;56,35258521;37,51543282;2,09999990;
16:01:24:219;0,0276;0,0240;-0,0005;56,35258521;37,51543282;2,09999990;
16:01:24:222;0,0276;0,0240;-0,0005;56,35258521;37,51543282;2,09999990;
16:01:24:224;-0,0075;0,0265;-0,0591;56,35258521;37,51543282;2,09999990;
16:01:24:280;-0,0075;0,0265;-0,0591;56,35258521;37,51543282;2,09999990;
16:01:24:283;-0,0075;0,0265;-0,0591;56,35258521;37,51543282;2,09999990;
16:01:24:285;0,0350;0,0337;-0,0193;56,35258521;37,51543282;2,09999990;
16:01:24:360;0,0350;0,0337;-0,0193;56,35258521;37,51543282;2,09999990;
16:01:24:362;0,0350;0,0337;-0,0193;56,35258521;37,51543282;2,09999990;
16:01:24:365;0,0066;0,0141;0,0019;56,35258521;37,51543282;2,09999990;
16:01:24:421;0,0066;0,0141;0,0019;56,35258521;37,51543282;2,09999990;
16:01:24:423;0,0066;0,0141;0,0019;56,35258521;37,51543282;2,09999990;
16:01:24:425;-0,0463;0,0108;0,1041;56,35258521;37,51543282;2,09999990;
16:01:24:479;-0,0463;0,0108;0,1041;56,35258521;37,51543282;2,09999990;
16:01:24:480;-0,0463;0,0108;0,1041;56,35258521;37,51543282;2,09999990;
16:01:24:482;0,0031;0,0014;0,0486;56,35258521;37,51543282;2,09999990;
16:01:24:541;0,0031;0,0014;0,0486;56,35258521;37,51543282;2,09999990;
16:01:24:542;0,0031;0,0014;0,0486;56,35258521;37,51543282;2,09999990;
16:01:24:544;0,0112;0,0220;-0,0838;56,35258521;37,51543282;2,09999990;
16:01:24:563;0,0112;0,0220;-0,0838;56,35258521;37,51543282;2,09999990;
16:01:24:565;0,0070;0,0168;-0,0745;56,35258521;37,51543282;2,09999990;
16:01:24:622;0,0070;0,0168;-0,0745;56,35258521;37,51543282;2,09999990;
16:01:24:625;0,0070;0,0168;-0,0745;56,35258521;37,51543282;2,09999990;
16:01:24:628;0,0190;0,0166;-0,0595;56,35258521;37,51543282;2,09999990;
16:01:24:685;0,0190;0,0166;-0,0595;56,35258521;37,51543282;2,09999990;
16:01:24:686;0,0190;0,0166;-0,0595;56,35257820;37,51546642;2,41000009;
16:01:24:688;-0,0009;0,0253;-0,0021;56,35257820;37,51546642;2,41000009;
16:01:24:741;-0,0009;0,0253;-0,0021;56,35257820;37,51546642;2,41000009;
16:01:24:744;-0,0009;0,0253;-0,0021;56,35257820;37,51546642;2,41000009;
16:01:24:746;-0,0071;0,0112;0,0030;56,35257820;37,51546642;2,41000009;
16:01:24:802;-0,0071;0,0112;0,0030;56,35257820;37,51546642;2,41000009;
16:01:24:803;-0,0071;0,0112;0,0030;56,35257820;37,51546642;2,41000009;
16:01:24:805;0,0160;-0,0121;0,0489;56,35257820;37,51546642;2,41000009;
16:01:24:815;0,0160;-0,0121;0,0489;56,35257820;37,51546642;2,41000009;
16:01:24:872;0,0160;-0,0121;0,0489;56,35257820;37,51546642;2,41000009;
16:01:24:873;0,0160;-0,0121;0,0489;56,35257820;37,51546642;2,41000009;
16:01:24:875;-0,0086;-0,0022;-0,0105;56,35257820;37,51546642;2,41000009;
16:01:24:934;-0,0086;-0,0022;-0,0105;56,35257820;37,51546642;2,41000009;
16:01:24:936;-0,0086;-0,0022;-0,0105;56,35257820;37,51546642;2,41000009;
16:01:24:939;-0,0031;0,0166;-0,0849;56,35257820;37,51546642;2,41000009;
16:01:24:993;-0,0031;0,0166;-0,0849;56,35257820;37,51546642;2,41000009;
16:01:24:996;-0,0031;0,0166;-0,0849;56,35257820;37,51546642;2,41000009;
16:01:24:997;-0,0454;0,0049;-0,0672;56,35257820;37,51546642;2,41000009;
16:01:25:054;-0,0454;0,0049;-0,0672;56,35257820;37,51546642;2,41000009;
16:01:25:056;-0,0454;0,0049;-0,0672;56,35257820;37,51546642;2,41000009;
16:01:25:058;-0,0578;-0,0015;0,0546;56,35257820;37,51546642;2,41000009;
16:01:25:135;-0,0578;-0,0015;0,0546;56,35257820;37,51546642;2,41000009;
16:01:25:138;-0,0578;-0,0015;0,0546;56,35257820;37,51546642;2,41000009;
16:01:25:140;0,0303;0,0140;0,0608;56,35257820;37,51546642;2,41000009;
16:01:25:195;0,0346;-0,0063;0,0268;56,35257820;37,51546642;2,41000009;
16:01:25:199;0,0346;-0,0063;0,0268;56,35257820;37,51546642;2,41000009;
16:01:25:201;0,0346;-0,0063;0,0268;56,35257820;37,51546642;2,41000009;
16:01:25:255;0,0346;-0,0063;0,0268;56,35257820;37,51546642;2,41000009;
16:01:25:259;0,0346;-0,0063;0,0268;56,35257820;37,51546642;2,41000009;
16:01:25:261;0,0275;0,0028;-0,0254;56,35257820;37,51546642;2,41000009;
16:01:25:317;0,0275;0,0028;-0,0254;56,35257820;37,51546642;2,41000009;
16:01:25:320;0,0275;0,0028;-0,0254;56,35257820;37,51546642;2,41000009;
16:01:25:322;0,0563;0,0055;0,0284;56,35257820;37,51546642;2,41000009;
16:01:25:340;0,0563;0,0055;0,0284;56,35257820;37,51546642;2,41000009;
16:01:25:343;0,0518;0,0042;0,0251;56,35257820;37,51546642;2,41000009;
16:01:25:397;0,0518;0,0042;0,0251;56,35257820;37,51546642;2,41000009;
16:01:25:400;0,0518;0,0042;0,0251;56,35257820;37,51546642;2,41000009;
16:01:25:403;-0,0313;0,0176;-0,0256;56,35257820;37,51546642;2,41000009;
16:01:25:457;-0,0313;0,0176;-0,0256;56,35257820;37,51546642;2,41000009;
16:01:25:461;-0,0313;0,0176;-0,0256;56,35257820;37,51546642;2,41000009;
16:01:25:464;-0,0259;-0,0081;0,0187;56,35257820;37,51546642;2,41000009;
16:01:25:505;-0,0259;-0,0081;0,0187;56,35257820;37,51546642;2,41000009;
16:01:25:567;-0,0259;-0,0081;0,0187;56,35257820;37,51546642;2,41000009;
16:01:25:570;-0,0259;-0,0081;0,0187;56,35257820;37,51546642;2,41000009;
16:01:25:571;-0,0416;-0,0068;-0,0511;56,35257820;37,51546642;2,41000009;
16:01:25:601;-0,0416;-0,0068;-0,0511;56,35257820;37,51546642;2,41000009;
16:01:25:603;-0,0416;-0,0068;-0,0511;56,35257820;37,51546642;2,41000009;
16:01:25:605;-0,0727;0,0041;-0,0140;56,35257820;37,51546642;2,41000009;
16:01:25:656;-0,0727;0,0041;-0,0140;56,35257820;37,51546642;2,41000009;
16:01:25:659;-0,0727;0,0041;-0,0140;56,35257820;37,51546642;2,41000009;
16:01:25:662;0,0193;0,0369;-0,0432;56,35257820;37,51546642;2,41000009;
16:01:25:717;0,0193;0,0369;-0,0432;56,35257820;37,51546642;2,41000009;
16:01:25:719;0,0193;0,0369;-0,0432;56,35257187;37,51550112;2,47000003;
16:01:25:721;0,0464;-0,0266;0,0419;56,35257187;37,51550112;2,47000003;
16:01:25:777;0,0464;-0,0266;0,0419;56,35257187;37,51550112;2,47000003;
16:01:25:780;0,0464;-0,0266;0,0419;56,35257187;37,51550112;2,47000003;
16:01:25:782;0,0398;0,0033;0,0363;56,35257187;37,51550112;2,47000003;
16:01:25:839;0,0398;0,0033;0,0363;56,35257187;37,51550112;2,47000003;
16:01:25:844;0,0398;0,0033;0,0363;56,35257187;37,51550112;2,47000003;
16:01:25:846;0,0209;0,0083;0,0255;56,35257187;37,51550112;2,47000003;
16:01:25:919;0,0209;0,0083;0,0255;56,35257187;37,51550112;2,47000003;
16:01:25:922;0,0209;0,0083;0,0255;56,35257187;37,51550112;2,47000003;
16:01:25:925;-0,0547;0,0238;-0,0311;56,35257187;37,51550112;2,47000003;
16:01:25:980;-0,0547;0,0238;-0,0311;56,35257187;37,51550112;2,47000003;
16:01:25:983;-0,0547;0,0238;-0,0311;56,35257187;37,51550112;2,47000003;
16:01:25:985;-0,0358;0,0141;0,0068;56,35257187;37,51550112;2,47000003;
16:01:26:018;-0,0311;0,0110;0,0060;56,35257187;37,51550112;2,47000003;
16:01:26:021;-0,0311;0,0110;0,0060;56,35257187;37,51550112;2,47000003;
16:01:26:071;-0,0311;0,0110;0,0060;56,35257187;37,51550112;2,47000003;
16:01:26:074;-0,0311;0,0110;0,0060;56,35257187;37,51550112;2,47000003;
16:01:26:076;0,0310;-0,0269;0,0676;56,35257187;37,51550112;2,47000003;
16:01:26:124;0,0310;-0,0269;0,0676;56,35257187;37,51550112;2,47000003;
16:01:26:127;0,0310;-0,0269;0,0676;56,35257187;37,51550112;2,47000003;
16:01:26:129;0,0241;-0,0265;0,0279;56,35257187;37,51550112;2,47000003;
16:01:26:180;0,0241;-0,0265;0,0279;56,35257187;37,51550112;2,47000003;
16:01:26:183;0,0241;-0,0265;0,0279;56,35257187;37,51550112;2,47000003;
16:01:26:186;0,0344;-0,0188;-0,0520;56,35257187;37,51550112;2,47000003;
16:01:26:241;0,0344;-0,0188;-0,0520;56,35257187;37,51550112;2,47000003;
16:01:26:245;0,0344;-0,0188;-0,0520;56,35257187;37,51550112;2,47000003;
16:01:26:247;0,0235;0,0192;-0,0812;56,35257187;37,51550112;2,47000003;
16:01:26:302;0,0235;0,0192;-0,0812;56,35257187;37,51550112;2,47000003;
16:01:26:305;0,0235;0,0192;-0,0812;56,35257187;37,51550112;2,47000003;
16:01:26:309;-0,0512;-0,0125;0,0006;56,35257187;37,51550112;2,47000003;
16:01:26:362;-0,0512;-0,0125;0,0006;56,35257187;37,51550112;2,47000003;
16:01:26:365;-0,0706;-0,0066;0,1020;56,35257187;37,51550112;2,47000003;
16:01:26:368;-0,0706;-0,0066;0,1020;56,35257187;37,51550112;2,47000003;
16:01:26:388;-0,0706;-0,0066;0,1020;56,35257187;37,51550112;2,47000003;
16:01:26:442;-0,0706;-0,0066;0,1020;56,35257187;37,51550112;2,47000003;
16:01:26:444;-0,0706;-0,0066;0,1020;56,35257187;37,51550112;2,47000003;
16:01:26:447;0,0674;-0,0017;-0,0236;56,35257187;37,51550112;2,47000003;
16:01:26:503;0,0674;-0,0017;-0,0236;56,35257187;37,51550112;2,47000003;
16:01:26:506;0,0674;-0,0017;-0,0236;56,35257187;37,51550112;2,47000003;
16:01:26:509;0,0005;-0,0037;-0,0491;56,35257187;37,51550112;2,47000003;
16:01:26:582;0,0005;-0,0037;-0,0491;56,35257187;37,51550112;2,47000003;
16:01:26:585;0,0005;-0,0037;-0,0491;56,35257187;37,51550112;2,47000003;
16:01:26:587;-0,0362;0,0287;-0,0651;56,35257187;37,51550112;2,47000003;
16:01:26:642;0,0215;-0,0079;-0,0023;56,35257187;37,51550112;2,47000003;
16:01:26:645;0,0215;-0,0079;-0,0023;56,35257187;37,51550112;2,47000003;
16:01:26:647;0,0215;-0,0079;-0,0023;56,35257187;37,51550112;2,47000003;
16:01:26:702;0,0215;-0,0079;-0,0023;56,35257187;37,51550112;2,47000003;
16:01:26:704;0,0215;-0,0079;-0,0023;56,35256604;37,51554182;2,85999990;
16:01:26:707;0,0348;0,0030;0,1052;56,35256604;37,51554182;2,85999990;
16:01:26:762;-0,0012;0,0005;0,0215;56,35256604;37,51554182;2,85999990;
16:01:26:764;-0,0012;0,0005;0,0215;56,35256604;37,51554182;2,85999990;
16:01:26:766;-0,0012;0,0005;0,0215;56,35256604;37,51554182;2,85999990;
16:01:26:825;-0,0012;0,0005;0,0215;56,35256604;37,51554182;2,85999990;
16:01:26:827;-0,0012;0,0005;0,0215;56,35256604;37,51554182;2,85999990;
16:01:26:830;0,0568;-0,0712;0,0163;56,35256604;37,51554182;2,85999990;
16:01:26:884;0,0568;-0,0712;0,0163;56,35256604;37,51554182;2,85999990;
16:01:26:887;0,0568;-0,0712;0,0163;56,35256604;37,51554182;2,85999990;
16:01:26:889;-0,0012;-0,1258;0,0524;56,35256604;37,51554182;2,85999990;
16:01:26:907;-0,0012;-0,1258;0,0524;56,35256604;37,51554182;2,85999990;
16:01:26:909;0,0032;-0,1118;0,0463;56,35256604;37,51554182;2,85999990;
16:01:26:966;0,0032;-0,1118;0,0463;56,35256604;37,51554182;2,85999990;
16:01:26:969;0,0032;-0,1118;0,0463;56,35256604;37,51554182;2,85999990;
16:01:26:971;-0,0175;-0,1260;-0,0495;56,35256604;37,51554182;2,85999990;
16:01:27:025;-0,0175;-0,1260;-0,0495;56,35256604;37,51554182;2,85999990;
16:01:27:028;-0,0175;-0,1260;-0,0495;56,35256604;37,51554182;2,85999990;
16:01:27:030;-0,0588;-0,1844;-0,0945;56,35256604;37,51554182;2,85999990;
16:01:27:093;-0,0588;-0,1844;-0,0945;56,35256604;37,51554182;2,85999990;
16:01:27:095;-0,0588;-0,1844;-0,0945;56,35256604;37,51554182;2,85999990;
16:01:27:096;-0,0409;-0,2327;0,0135;56,35256604;37,51554182;2,85999990;
16:01:27:155;-0,0409;-0,2327;0,0135;56,35256604;37,51554182;2,85999990;
16:01:27:157;-0,0409;-0,2327;0,0135;56,35256604;37,51554182;2,85999990;
16:01:27:159;-0,0026;-0,2494;0,0500;56,35256604;37,51554182;2,85999990;
16:01:27:215;-0,0026;-0,2494;0,0500;56,35256604;37,51554182;2,85999990;
16:01:27:217;-0,0026;-0,2494;0,0500;56,35256604;37,51554182;2,85999990;
16:01:27:219;-0,0272;-0,2350;0,0095;56,35256604;37,51554182;2,85999990;
16:01:27:276;-0,0272;-0,2350;0,0095;56,35256604;37,51554182;2,85999990;
16:01:27:278;-0,0092;-0,2682;-0,0205;56,35256604;37,51554182;2,85999990;
16:01:27:280;-0,0092;-0,2682;-0,0205;56,35256604;37,51554182;2,85999990;
16:01:27:336;-0,0092;-0,2682;-0,0205;56,35256604;37,51554182;2,85999990;
16:01:27:338;-0,0092;-0,2682;-0,0205;56,35256604;37,51554182;2,85999990;
16:01:27:339;0,0323;-0,2629;-0,0145;56,35256604;37,51554182;2,85999990;
16:01:27:397;0,0323;-0,2629;-0,0145;56,35256604;37,51554182;2,85999990;
16:01:27:399;0,0323;-0,2629;-0,0145;56,35256604;37,51554182;2,85999990;
16:01:27:400;0,0273;-0,2694;0,0058;56,35256604;37,51554182;2,85999990;
16:01:27:409;0,0273;-0,2694;0,0058;56,35256604;37,51554182;2,85999990;
16:01:27:466;0,0273;-0,2694;0,0058;56,35256604;37,51554182;2,85999990;
16:01:27:469;0,0273;-0,2694;0,0058;56,35256604;37,51554182;2,85999990;
16:01:27:470;0,0192;-0,2311;0,0466;56,35256604;37,51554182;2,85999990;
16:01:27:527;0,0192;-0,2311;0,0466;56,35256604;37,51554182;2,85999990;
16:01:27:530;0,0192;-0,2311;0,0466;56,35256604;37,51554182;2,85999990;
16:01:27:532;-0,0129;-0,2261;-0,0496;56,35256604;37,51554182;2,85999990;
16:01:27:607;-0,0129;-0,2261;-0,0496;56,35256604;37,51554182;2,85999990;
16:01:27:610;-0,0129;-0,2261;-0,0496;56,35256604;37,51554182;2,85999990;
16:01:27:612;-0,0501;-0,2015;-0,0016;56,35256604;37,51554182;2,85999990;
16:01:27:665;-0,0501;-0,2015;-0,0016;56,35256604;37,51554182;2,85999990;
16:01:27:667;-0,0501;-0,2015;-0,0016;56,35255701;37,51558518;2,90000010;
16:01:27:668;-0,0257;-0,1764;-0,0267;56,35255701;37,51558518;2,90000010;
16:01:27:726;-0,0257;-0,1764;-0,0267;56,35255701;37,51558518;2,90000010;
16:01:27:728;-0,0257;-0,1764;-0,0267;56,35255701;37,51558518;2,90000010;
16:01:27:729;0,0017;-0,1754;0,0465;56,35255701;37,51558518;2,90000010;
16:01:27:788;0,0017;-0,1754;0,0465;56,35255701;37,51558518;2,90000010;
16:01:27:790;0,0017;-0,1754;0,0465;56,35255701;37,51558518;2,90000010;
16:01:27:792;0,0416;-0,1315;0,0750;56,35255701;37,51558518;2,90000010;
16:01:27:848;0,0416;-0,1315;0,0750;56,35255701;37,51558518;2,90000010;
16:01:27:850;0,0416;-0,1315;0,0750;56,35255701;37,51558518;2,90000010;
16:01:27:852;-0,0425;-0,1503;-0,0142;56,35255701;37,51558518;2,90000010;
16:01:27:911;-0,0425;-0,1503;-0,0142;56,35255701;37,51558518;2,90000010;
16:01:27:912;-0,0425;-0,1503;-0,0142;56,35255701;37,51558518;2,90000010;
16:01:27:914;-0,0923;-0,1493;0,0059;56,35255701;37,51558518;2,90000010;
16:01:27:929;-0,0923;-0,1493;0,0059;56,35255701;37,51558518;2,90000010;
16:01:27:933;-0,0811;-0,1333;0,0052;56,35255701;37,51558518;2,90000010;
16:01:27:990;-0,0811;-0,1333;0,0052;56,35255701;37,51558518;2,90000010;
16:01:27:992;-0,0811;-0,1333;0,0052;56,35255701;37,51558518;2,90000010;
16:01:27:994;0,0277;-0,0768;-0,0870;56,35255701;37,51558518;2,90000010;
16:01:28:050;0,0764;-0,0501;-0,0295;56,35255701;37,51558518;2,90000010;
16:01:28:051;0,0764;-0,0501;-0,0295;56,35255701;37,51558518;2,90000010;
16:01:28:052;0,0764;-0,0501;-0,0295;56,35255701;37,51558518;2,90000010;
16:01:28:108;0,0764;-0,0501;-0,0295;56,35255701;37,51558518;2,90000010;
16:01:28:109;0,0764;-0,0501;-0,0295;56,35255701;37,51558518;2,90000010;
16:01:28:110;0,0135;-0,0161;0,0939;56,35255701;37,51558518;2,90000010;
16:01:28:171;0,0135;-0,0161;0,0939;56,35255701;37,51558518;2,90000010;
16:01:28:174;0,0135;-0,0161;0,0939;56,35255701;37,51558518;2,90000010;
16:01:28:176;0,0224;-0,0137;0,0204;56,35255701;37,51558518;2,90000010;
16:01:28:191;0,0224;-0,0137;0,0204;56,35255701;37,51558518;2,90000010;
16:01:28:251;0,0224;-0,0137;0,0204;56,35255701;37,51558518;2,90000010;
16:01:28:253;0,0224;-0,0137;0,0204;56,35255701;37,51558518;2,90000010;
16:01:28:256;0,0098;-0,0101;-0,0542;56,35255701;37,51558518;2,90000010;
16:01:28:311;0,0098;-0,0101;-0,0542;56,35255701;37,51558518;2,90000010;
16:01:28:314;0,0098;-0,0101;-0,0542;56,35255701;37,51558518;2,90000010;
16:01:28:316;-0,0198;-0,0299;-0,0024;56,35255701;37,51558518;2,90000010;
16:01:28:371;-0,0198;-0,0299;-0,0024;56,35255701;37,51558518;2,90000010;
16:01:28:373;-0,0198;-0,0299;-0,0024;56,35255701;37,51558518;2,90000010;
16:01:28:375;-0,0083;-0,0286;0,0675;56,35255701;37,51558518;2,90000010;
16:01:28:431;-0,0083;-0,0286;0,0675;56,35255701;37,51558518;2,90000010;
16:01:28:434;-0,0083;-0,0286;0,0675;56,35255701;37,51558518;2,90000010;
16:01:28:436;-0,0407;0,0004;0,0172;56,35255701;37,51558518;2,90000010;
16:01:28:511;-0,0407;0,0004;0,0172;56,35255701;37,51558518;2,90000010;
16:01:28:514;-0,0407;0,0004;0,0172;56,35255701;37,51558518;2,90000010;
16:01:28:517;-0,0279;-0,0104;-0,0268;56,35255701;37,51558518;2,90000010;
16:01:28:568;-0,0279;-0,0104;-0,0268;56,35255701;37,51558518;2,90000010;
16:01:28:570;-0,0279;-0,0104;-0,0268;56,35255701;37,51558518;2,90000010;
16:01:28:572;0,0312;0,0065;-0,0344;56,35255701;37,51558518;2,90000010;
16:01:28:622;0,0312;0,0065;-0,0344;56,35255701;37,51558518;2,90000010;
16:01:28:624;0,0312;0,0065;-0,0344;56,35255701;37,51558518;2,90000010;
16:01:28:626;0,0586;0,0079;-0,0723;56,35255701;37,51558518;2,90000010;
16:01:28:691;0,0586;0,0079;-0,0723;56,35255701;37,51558518;2,90000010;
16:01:28:694;0,0586;0,0079;-0,0723;56,35254860;37,51562699;2,63000011;
16:01:28:696;0,0221;-0,0202;-0,0382;56,35254860;37,51562699;2,63000011;
16:01:28:762;0,0221;-0,0202;-0,0382;56,35254860;37,51562699;2,63000011;
16:01:28:764;0,0221;-0,0202;-0,0382;56,35254860;37,51562699;2,63000011;
16:01:28:766;0,0464;-0,0176;0,0795;56,35254860;37,51562699;2,63000011;
16:01:28:836;-0,0354;-0,0140;0,0619;56,35254860;37,51562699;2,63000011;
16:01:28:840;-0,0354;-0,0140;0,0619;56,35254860;37,51562699;2,63000011;
16:01:28:842;-0,0354;-0,0140;0,0619;56,35254860;37,51562699;2,63000011;
16:01:28:885;-0,0354;-0,0140;0,0619;56,35254860;37,51562699;2,63000011;
16:01:28:889;-0,0354;-0,0140;0,0619;56,35254860;37,51562699;2,63000011;
16:01:28:891;-0,0792;-0,0107;-0,0016;56,35254860;37,51562699;2,63000011;
16:01:28:945;-0,0792;-0,0107;-0,0016;56,35254860;37,51562699;2,63000011;
16:01:28:948;-0,0792;-0,0107;-0,0016;56,35254860;37,51562699;2,63000011;
16:01:28:951;-0,0650;-0,0306;0,0136;56,35254860;37,51562699;2,63000011;
16:01:28:971;-0,0650;-0,0306;0,0136;56,35254860;37,51562699;2,63000011;
16:01:28:976;-0,0600;-0,0257;0,0124;56,35254860;37,51562699;2,63000011;
16:01:29:026;-0,0600;-0,0257;0,0124;56,35254860;37,51562699;2,63000011;
16:01:29:029;-0,0600;-0,0257;0,0124;56,35254860;37,51562699;2,63000011;
16:01:29:031;0,0831;-0,0318;-0,0366;56,35254860;37,51562699;2,63000011;
16:01:29:082;0,0831;-0,0318;-0,0366;56,35254860;37,51562699;2,63000011;
16:01:29:085;0,0831;-0,0318;-0,0366;56,35254860;37,51562699;2,63000011;
16:01:29:089;0,1263;-0,0274;-0,0953;56,35254860;37,51562699;2,63000011;
16:01:29:136;0,1263;-0,0274;-0,0953;56,35254860;37,51562699;2,63000011;
16:01:29:138;0,1263;-0,0274;-0,0953;56,35254860;37,51562699;2,63000011;
16:01:29:140;0,0544;-0,0604;0,0492;56,35254860;37,51562699;2,63000011;
16:01:29:195;0,0544;-0,0604;0,0492;56,35254860;37,51562699;2,63000011;
16:01:29:198;-0,0402;-0,0768;0,0684;56,35254860;37,51562699;2,63000011;
16:01:29:200;-0,0402;-0,0768;0,0684;56,35254860;37,51562699;2,63000011;
16:01:29:232;-0,0402;-0,0768;0,0684;56,35254860;37,51562699;2,63000011;
16:01:29:287;-0,0402;-0,0768;0,0684;56,35254860;37,51562699;2,63000011;
16:01:29:291;-0,0960;-0,2106;-0,0796;56,35254860;37,51562699;2,63000011;
16:01:29:293;-0,0960;-0,2106;-0,0796;56,35254860;37,51562699;2,63000011;
16:01:29:347;-0,0960;-0,2106;-0,0796;56,35254860;37,51562699;2,63000011;
16:01:29:351;-0,0960;-0,2106;-0,0796;56,35254860;37,51562699;2,63000011;
16:01:29:355;0,0063;-0,2697;-0,0005;56,35254860;37,51562699;2,63000011;
16:01:29:408;0,0063;-0,2697;-0,0005;56,35254860;37,51562699;2,63000011;
16:01:29:411;0,0063;-0,2697;-0,0005;56,35254860;37,51562699;2,63000011;
16:01:29:414;0,0729;-0,3003;0,0585;56,35254860;37,51562699;2,63000011;
16:01:29:467;0,0729;-0,3003;0,0585;56,35254860;37,51562699;2,63000011;
16:01:29:471;0,0729;-0,3003;0,0585;56,35254860;37,51562699;2,63000011;
16:01:29:473;0,0638;-0,3399;0,0412;56,35254860;37,51562699;2,63000011;
16:01:29:549;0,0638;-0,3399;0,0412;56,35254860;37,51562699;2,63000011;
16:01:29:552;0,0638;-0,3399;0,0412;56,35254860;37,51562699;2,63000011;
16:01:29:554;-0,0254;-0,2945;0,0198;56,35254860;37,51562699;2,63000011;
16:01:29:595;-0,0254;-0,2945;0,0198;56,35254860;37,51562699;2,63000011;
16:01:29:598;-0,0254;-0,2945;0,0198;56,35254860;37,51562699;2,63000011;
16:01:29:601;-0,0679;-0,2363;-0,0382;56,35254860;37,51562699;2,63000011;
16:01:29:650;-0,0679;-0,2363;-0,0382;56,35254860;37,51562699;2,63000011;
16:01:29:652;-0,0679;-0,2363;-0,0382;56,35254860;37,51562699;2,63000011;
16:01:29:655;-0,0497;-0,1758;-0,0252;56,35254860;37,51562699;2,63000011;
16:01:29:708;-0,0497;-0,1758;-0,0252;56,35254860;37,51562699;2,63000011;
16:01:29:710;-0,0497;-0,1758;-0,0252;56,35254242;37,51566142;2,23000002;
16:01:29:712;-0,0189;-0,1618;0,0057;56,35254242;37,51566142;2,23000002;
16:01:29:755;-0,0189;-0,1618;0,0057;56,35254242;37,51566142;2,23000002;
16:01:29:757;-0,0197;-0,1440;0,0052;56,35254242;37,51566142;2,23000002;
16:01:29:809;-0,0197;-0,1440;0,0052;56,35254242;37,51566142;2,23000002;
16:01:29:811;0,0284;-0,1069;0,0134;56,35254242;37,51566142;2,23000002;
16:01:29:813;0,0284;-0,1069;0,0134;56,35254242;37,51566142;2,23000002;
16:01:29:870;0,0284;-0,1069;0,0134;56,35254242;37,51566142;2,23000002;
16:01:29:874;0,0284;-0,1069;0,0134;56,35254242;37,51566142;2,23000002;
16:01:29:876;0,0667;-0,0672;0,0389;56,35254242;37,51566142;2,23000002;
16:01:29:929;0,0667;-0,0672;0,0389;56,35254242;37,51566142;2,23000002;
16:01:29:932;0,0667;-0,0672;0,0389;56,35254242;37,51566142;2,23000002;
16:01:29:935;0,0942;-0,0713;0,0381;56,35254242;37,51566142;2,23000002;
16:01:29:991;0,0942;-0,0713;0,0381;56,35254242;37,51566142;2,23000002;
16:01:29:994;0,0942;-0,0713;0,0381;56,35254242;37,51566142;2,23000002;
16:01:29:997;0,0284;-0,0679;-0,0192;56,35254242;37,51566142;2,23000002;
16:01:30:017;0,0284;-0,0679;-0,0192;56,35254242;37,51566142;2,23000002;
16:01:30:071;0,0284;-0,0679;-0,0192;56,35254242;37,51566142;2,23000002;
16:01:30:075;0,0284;-0,0679;-0,0192;56,35254242;37,51566142;2,23000002;
16:01:30:078;-0,1028;-0,0640;-0,0071;56,35254242;37,51566142;2,23000002;
16:01:30:106;-0,1028;-0,0640;-0,0071;56,35254242;37,51566142;2,23000002;
16:01:30:109;-0,0924;-0,0549;-0,0060;56,35254242;37,51566142;2,23000002;
16:01:30:162;-0,0924;-0,0549;-0,0060;56,35254242;37,51566142;2,23000002;
16:01:30:166;-0,0924;-0,0549;-0,0060;56,35254242;37,51566142;2,23000002;
16:01:30:168;-0,1027;-0,0322;0,0069;56,35254242;37,51566142;2,23000002;
16:01:30:221;-0,1027;-0,0322;0,0069;56,35254242;37,51566142;2,23000002;
16:01:30:225;-0,1027;-0,0322;0,0069;56,35254242;37,51566142;2,23000002;
16:01:30:227;-0,0295;-0,0417;0,0032;56,35254242;37,51566142;2,23000002;
16:01:30:279;-0,0295;-0,0417;0,0032;56,35254242;37,51566142;2,23000002;
16:01:30:333;-0,0295;-0,0417;0,0032;56,35254242;37,51566142;2,23000002;
16:01:30:336;-0,0295;-0,0417;0,0032;56,35254242;37,51566142;2,23000002;
16:01:30:338;0,0825;-0,0110;0,0126;56,35254242;37,51566142;2,23000002;
16:01:30:393;0,0825;-0,0110;0,0126;56,35254242;37,51566142;2,23000002;
16:01:30:396;0,0825;-0,0110;0,0126;56,35254242;37,51566142;2,23000002;
16:01:30:400;0,0863;-0,0024;0,0128;56,35254242;37,51566142;2,23000002;
16:01:30:453;0,0863;-0,0024;0,0128;56,35254242;37,51566142;2,23000002;
16:01:30:456;0,0863;-0,0024;0,0128;56,35254242;37,51566142;2,23000002;
16:01:30:458;0,0002;-0,0185;-0,0215;56,35254242;37,51566142;2,23000002;
16:01:30:513;0,0002;-0,0185;-0,0215;56,35254242;37,51566142;2,23000002;
16:01:30:515;0,0002;-0,0185;-0,0215;56,35254242;37,51566142;2,23000002;
16:01:30:519;-0,0097;0,0112;0,0734;56,35254242;37,51566142;2,23000002;
16:01:30:539;-0,0097;0,0112;0,0734;56,35254242;37,51566142;2,23000002;
16:01:30:543;-0,0095;0,0104;0,0653;56,35254242;37,51566142;2,23000002;
16:01:30:593;-0,0095;0,0104;0,0653;56,35254242;37,51566142;2,23000002;
16:01:30:597;-0,0095;0,0104;0,0653;56,35254242;37,51566142;2,23000002;
16:01:30:599;0,0198;0,0139;-0,0468;56,35254242;37,51566142;2,23000002;
16:01:30:624;0,0198;0,0139;-0,0468;56,35254242;37,51566142;2,23000002;
16:01:30:673;0,0198;0,0139;-0,0468;56,35254242;37,51566142;2,23000002;
16:01:30:678;0,0198;0,0139;-0,0468;56,35254242;37,51566142;2,23000002;
16:01:30:681;-0,0061;0,0413;0,0281;56,35254242;37,51566142;2,23000002;
16:01:30:733;-0,0061;0,0413;0,0281;56,35254242;37,51566142;2,23000002;
16:01:30:734;-0,0061;0,0413;0,0281;56,35253737;37,51568846;1,69000006;
16:01:30:736;0,0611;0,0174;-0,0053;56,35253737;37,51568846;1,69000006;
16:01:30:797;0,0611;0,0174;-0,0053;56,35253737;37,51568846;1,69000006;
16:01:30:800;0,0611;0,0174;-0,0053;56,35253737;37,51568846;1,69000006;
16:01:30:802;-0,0138;0,0048;-0,0109;56,35253737;37,51568846;1,69000006;
16:01:30:856;-0,0138;0,0048;-0,0109;56,35253737;37,51568846;1,69000006;
16:01:30:859;-0,0138;0,0048;-0,0109;56,35253737;37,51568846;1,69000006;
16:01:30:863;0,0154;0,0585;-0,0136;56,35253737;37,51568846;1,69000006;
16:01:30:915;0,0154;0,0585;-0,0136;56,35253737;37,51568846;1,69000006;
16:01:30:917;0,0154;0,0585;-0,0136;56,35253737;37,51568846;1,69000006;
16:01:30:919;0,0010;0,0094;-0,0198;56,35253737;37,51568846;1,69000006;
16:01:30:975;0,0010;0,0094;-0,0198;56,35253737;37,51568846;1,69000006;
16:01:30:980;0,0010;0,0094;-0,0198;56,35253737;37,51568846;1,69000006;
16:01:30:982;-0,0201;-0,0043;-0,0260;56,35253737;37,51568846;1,69000006;
16:01:31:037;-0,0201;-0,0043;-0,0260;56,35253737;37,51568846;1,69000006;
16:01:31:041;0,0110;0,0221;0,0063;56,35253737;37,51568846;1,69000006;
16:01:31:042;0,0110;0,0221;0,0063;56,35253737;37,51568846;1,69000006;
16:01:31:115;0,0110;0,0221;0,0063;56,35253737;37,51568846;1,69000006;
16:01:31:118;0,0110;0,0221;0,0063;56,35253737;37,51568846;1,69000006;
16:01:31:121;-0,0054;0,0479;0,0152;56,35253737;37,51568846;1,69000006;
16:01:31:129;-0,0052;0,0425;0,0135;56,35253737;37,51568846;1,69000006;
16:01:31:132;-0,0052;0,0425;0,0135;56,35253737;37,51568846;1,69000006;
16:01:31:187;-0,0052;0,0425;0,0135;56,35253737;37,51568846;1,69000006;
16:01:31:190;-0,0052;0,0425;0,0135;56,35253737;37,51568846;1,69000006;
16:01:31:192;0,0288;0,0331;-0,0199;56,35253737;37,51568846;1,69000006;
16:01:31:248;0,0288;0,0331;-0,0199;56,35253737;37,51568846;1,69000006;
16:01:31:250;0,0288;0,0331;-0,0199;56,35253737;37,51568846;1,69000006;
16:01:31:254;0,0208;0,0332;-0,0396;56,35253737;37,51568846;1,69000006;
16:01:31:306;0,0208;0,0332;-0,0396;56,35253737;37,51568846;1,69000006;
16:01:31:309;0,0208;0,0332;-0,0396;56,35253737;37,51568846;1,69000006;
16:01:31:312;-0,0179;0,0556;0,0343;56,35253737;37,51568846;1,69000006;
16:01:31:378;-0,0179;0,0556;0,0343;56,35253737;37,51568846;1,69000006;
16:01:31:381;-0,0179;0,0556;0,0343;56,35253737;37,51568846;1,69000006;
16:01:31:383;-0,0239;0,0691;0,0061;56,35253737;37,51568846;1,69000006;
16:01:31:439;-0,0239;0,0691;0,0061;56,35253737;37,51568846;1,69000006;
16:01:31:442;-0,0239;0,0691;0,0061;56,35253737;37,51568846;1,69000006;
16:01:31:444;0,0009;0,0609;-0,0225;56,35253737;37,51568846;1,69000006;
16:01:31:499;0,0009;0,0609;-0,0225;56,35253737;37,51568846;1,69000006;
16:01:31:503;0,0009;0,0609;-0,0225;56,35253737;37,51568846;1,69000006;
16:01:31:504;0,0174;0,0598;-0,0423;56,35253737;37,51568846;1,69000006;
16:01:31:559;0,0174;0,0598;-0,0423;56,35253737;37,51568846;1,69000006;
16:01:31:563;0,0174;0,0598;-0,0423;56,35253737;37,51568846;1,69000006;
16:01:31:565;-0,0006;0,1109;-0,0182;56,35253737;37,51568846;1,69000006;
16:01:31:582;-0,0006;0,1109;-0,0182;56,35253737;37,51568846;1,69000006;
16:01:31:638;-0,0006;0,1109;-0,0182;56,35253737;37,51568846;1,69000006;
16:01:31:640;-0,0006;0,1109;-0,0182;56,35253737;37,51568846;1,69000006;
16:01:31:646;0,0360;0,0705;0,0062;56,35253737;37,51568846;1,69000006;
16:01:31:698;0,0360;0,0705;0,0062;56,35253737;37,51568846;1,69000006;
16:01:31:704;0,0360;0,0705;0,0062;56,35253657;37,51570530;1,05999994;
16:01:31:707;-0,0070;0,0934;0,0088;56,35253657;37,51570530;1,05999994;
16:01:31:758;-0,0070;0,0934;0,0088;56,35253657;37,51570530;1,05999994;
16:01:31:760;-0,0070;0,0934;0,0088;56,35253657;37,51570530;1,05999994;
16:01:31:762;-0,0224;0,1699;0,0202;56,35253657;37,51570530;1,05999994;
16:01:31:819;-0,0224;0,1699;0,0202;56,35253657;37,51570530;1,05999994;
16:01:31:821;-0,0224;0,1699;0,0202;56,35253657;37,51570530;1,05999994;
16:01:31:823;-0,0251;0,1832;-0,0094;56,35253657;37,51570530;1,05999994;
16:01:31:900;-0,0251;0,1832;-0,0094;56,35253657;37,51570530;1,05999994;
16:01:31:905;-0,0251;0,1832;-0,0094;56,35253657;37,51570530;1,05999994;
16:01:31:908;-0,0004;0,2147;-0,0405;56,35253657;37,51570530;1,05999994;
16:01:31:961;-0,0004;0,2147;-0,0405;56,35253657;37,51570530;1,05999994;
16:01:31:964;-0,0004;0,2147;-0,0405;56,35253657;37,51570530;1,05999994;
16:01:31:967;-0,0155;0,2752;-0,0147;56,35253657;37,51570530;1,05999994;
16:01:32:021;-0,0155;0,2752;-0,0147;56,35253657;37,51570530;1,05999994;
16:01:32:025;-0,0155;0,2752;-0,0147;56,35253657;37,51570530;1,05999994;
16:01:32:027;0,0201;0,3001;0,0742;56,35253657;37,51570530;1,05999994;
16:01:32:082;0,0201;0,3001;0,0742;56,35253657;37,51570530;1,05999994;
16:01:32:085;0,0201;0,3001;0,0742;56,35253657;37,51570530;1,05999994;
16:01:32:087;0,0859;0,2993;-0,0111;56,35253657;37,51570530;1,05999994;
16:01:32:107;0,0759;0,2659;-0,0098;56,35253657;37,51570530;1,05999994;
16:01:32:111;0,0759;0,2659;-0,0098;56,35253657;37,51570530;1,05999994;
16:01:32:151;0,0759;0,2659;-0,0098;56,35253657;37,51570530;1,05999994;
16:01:32:153;0,0759;0,2659;-0,0098;56,35253657;37,51570530;1,05999994;
16:01:32:155;-0,0226;0,2996;-0,0179;56,35253657;37,51570530;1,05999994;
16:01:32:213;-0,0226;0,2996;-0,0179;56,35253657;37,51570530;1,05999994;
16:01:32:216;-0,0226;0,2996;-0,0179;56,35253657;37,51570530;1,05999994;
16:01:32:219;-0,0157;0,3023;-0,0077;56,35253657;37,51570530;1,05999994;
16:01:32:274;-0,0157;0,3023;-0,0077;56,35253657;37,51570530;1,05999994;
16:01:32:277;-0,0157;0,3023;-0,0077;56,35253657;37,51570530;1,05999994;
16:01:32:281;0,0052;0,2254;-0,0086;56,35253657;37,51570530;1,05999994;
16:01:32:333;0,0052;0,2254;-0,0086;56,35253657;37,51570530;1,05999994;
16:01:32:336;0,0052;0,2254;-0,0086;56,35253657;37,51570530;1,05999994;
16:01:32:340;-0,0141;0,2232;0,0017;56,35253657;37,51570530;1,05999994;
16:01:32:365;-0,0141;0,2232;0,0017;56,35253657;37,51570530;1,05999994;
16:01:32:424;-0,0141;0,2232;0,0017;56,35253657;37,51570530;1,05999994;
16:01:32:427;-0,0141;0,2232;0,0017;56,35253657;37,51570530;1,05999994;
16:01:32:430;0,0168;0,1736;0,0122;56,35253657;37,51570530;1,05999994;
16:01:32:485;0,0168;0,1736;0,0122;56,35253657;37,51570530;1,05999994;
16:01:32:488;0,0168;0,1736;0,0122;56,35253657;37,51570530;1,05999994;
16:01:32:490;0,0413;0,1308;-0,0369;56,35253657;37,51570530;1,05999994;
16:01:32:545;0,0413;0,1308;-0,0369;56,35253657;37,51570530;1,05999994;
16:01:32:548;0,0413;0,1308;-0,0369;56,35253657;37,51570530;1,05999994;
16:01:32:550;-0,0190;0,1552;0,0290;56,35253657;37,51570530;1,05999994;
16:01:32:603;-0,0190;0,1552;0,0290;56,35253657;37,51570530;1,05999994;
16:01:32:607;-0,0190;0,1552;0,0290;56,35253657;37,51570530;1,05999994;
16:01:32:609;0,0057;0,1225;0,0237;56,35253657;37,51570530;1,05999994;
16:01:32:662;0,0057;0,1225;0,0237;56,35253657;37,51570530;1,05999994;
16:01:32:664;0,0057;0,1225;0,0237;56,35253657;37,51570530;1,05999994;
16:01:32:666;0,0119;0,0730;-0,0247;56,35253657;37,51570530;1,05999994;
16:01:32:725;0,0119;0,0730;-0,0247;56,35253657;37,51570530;1,05999994;
16:01:32:729;0,0119;0,0730;-0,0247;56,35253657;37,51570530;1,05999994;
16:01:32:732;-0,0259;0,0798;-0,0301;56,35253657;37,51570530;1,05999994;
16:01:32:786;-0,0259;0,0798;-0,0301;56,35253657;37,51570530;1,05999994;
16:01:32:789;-0,0259;0,0798;-0,0301;56,35253657;37,51570530;1,05999994;
16:01:32:792;-0,0111;0,0996;0,0276;56,35253657;37,51570530;1,05999994;
16:01:32:846;-0,0111;0,0996;0,0276;56,35253657;37,51570530;1,05999994;
16:01:32:849;-0,0111;0,0996;0,0276;56,35253657;37,51570530;1,05999994;
16:01:32:851;-0,0081;0,0485;0,0375;56,35253657;37,51570530;1,05999994;
16:01:32:889;-0,0081;0,0485;0,0375;56,35253657;37,51570530;1,05999994;
16:01:32:892;-0,0079;0,0437;0,0334;56,35253657;37,51570530;1,05999994;
16:01:32:946;-0,0079;0,0437;0,0334;56,35253657;37,51570530;1,05999994;
16:01:32:949;-0,0079;0,0437;0,0334;56,35253657;37,51570530;1,05999994;
16:01:32:952;0,0435;0,0136;-0,0289;56,35253657;37,51570530;1,05999994;
16:01:33:006;0,0435;0,0136;-0,0289;56,35253657;37,51570530;1,05999994;
16:01:33:011;0,0435;0,0136;-0,0289;56,35253657;37,51570530;1,05999994;
16:01:33:014;-0,0084;0,0419;0,0169;56,35253657;37,51570530;1,05999994;
16:01:33:068;-0,0084;0,0419;0,0169;56,35253657;37,51570530;1,05999994;
16:01:33:071;-0,0084;0,0419;0,0169;56,35253657;37,51570530;1,05999994;
16:01:33:073;-0,0155;0,0378;-0,0012;56,35253657;37,51570530;1,05999994;
16:01:33:128;-0,0155;0,0378;-0,0012;56,35253657;37,51570530;1,05999994;
16:01:33:130;-0,0155;0,0378;-0,0012;56,35253657;37,51570530;1,05999994;
16:01:33:134;0,0017;-0,0056;-0,0322;56,35253657;37,51570530;1,05999994;
16:01:33:153;0,0017;-0,0056;-0,0322;56,35253657;37,51570530;1,05999994;
16:01:33:229;0,0017;-0,0056;-0,0322;56,35253657;37,51570530;1,05999994;
16:01:33:232;0,0017;-0,0056;-0,0322;56,35253657;37,51570530;1,05999994;
16:01:33:235;-0,0244;0,0212;0,0084;56,35253657;37,51570530;1,05999994;
16:01:33:287;-0,0244;0,0212;0,0084;56,35253657;37,51570530;1,05999994;
16:01:33:290;-0,0244;0,0212;0,0084;56,35253657;37,51570530;1,05999994;
16:01:33:293;0,0005;0,0106;0,0163;56,35253657;37,51570530;1,05999994;
16:01:33:347;0,0005;0,0106;0,0163;56,35253657;37,51570530;1,05999994;
16:01:33:350;0,0005;0,0106;0,0163;56,35253657;37,51570530;1,05999994;
16:01:33:352;0,0476;-0,0262;-0,0315;56,35253657;37,51570530;1,05999994;
16:01:33:406;0,0476;-0,0262;-0,0315;56,35253657;37,51570530;1,05999994;
16:01:33:408;0,0476;-0,0262;-0,0315;56,35253657;37,51570530;1,05999994;
16:01:33:409;-0,0010;-0,0073;0,0019;56,35253657;37,51570530;1,05999994;
16:01:33:468;-0,0010;-0,0073;0,0019;56,35253657;37,51570530;1,05999994;
16:01:33:472;-0,0010;-0,0073;0,0019;56,35253657;37,51570530;1,05999994;
16:01:33:474;-0,0030;0,0222;0,0340;56,35253657;37,51570530;1,05999994;
16:01:33:529;-0,0030;0,0222;0,0340;56,35253657;37,51570530;1,05999994;
16:01:33:532;-0,0030;0,0222;0,0340;56,35253657;37,51570530;1,05999994;
16:01:33:535;-0,0022;-0,0262;-0,0113;56,35253657;37,51570530;1,05999994;
16:01:33:590;-0,0022;-0,0262;-0,0113;56,35253657;37,51570530;1,05999994;
16:01:33:593;-0,0022;-0,0262;-0,0113;56,35253657;37,51570530;1,05999994;
16:01:33:595;-0,0076;-0,0330;-0,0476;56,35253657;37,51570530;1,05999994;
16:01:33:650;-0,0076;-0,0330;-0,0476;56,35253657;37,51570530;1,05999994;
16:01:33:653;-0,0076;-0,0330;-0,0476;56,35253657;37,51570530;1,05999994;
16:01:33:655;-0,0208;0,0048;0,0123;56,35253657;37,51570530;1,05999994;
16:01:33:670;-0,0182;0,0045;0,0109;56,35253657;37,51570530;1,05999994;
16:01:33:674;-0,0182;0,0045;0,0109;56,35253657;37,51570530;1,05999994;
16:01:33:729;-0,0182;0,0045;0,0109;56,35253657;37,51570530;1,05999994;
16:01:33:731;-0,0182;0,0045;0,0109;56,35253371;37,51572536;0,69999999;
16:01:33:733;-0,0001;0,0224;0,0441;56,35253371;37,51572536;0,69999999;
16:01:33:791;-0,0001;0,0224;0,0441;56,35253371;37,51572536;0,69999999;
16:01:33:795;-0,0001;0,0224;0,0441;56,35253371;37,51572536;0,69999999;
16:01:33:797;0,0458;-0,0357;-0,0129;56,35253371;37,51572536;0,69999999;
16:01:33:851;0,0458;-0,0357;-0,0129;56,35253371;37,51572536;0,69999999;
16:01:33:855;0,0458;-0,0357;-0,0129;56,35253371;37,51572536;0,69999999;
16:01:33:858;0,0041;-0,0271;-0,0235;56,35253371;37,51572536;0,69999999;
16:01:33:910;0,0041;-0,0271;-0,0235;56,35253371;37,51572536;0,69999999;
16:01:33:914;0,0041;-0,0271;-0,0235;56,35253371;37,51572536;0,69999999;
16:01:33:916;-0,0185;0,0256;0,0145;56,35253371;37,51572536;0,69999999;
16:01:33:931;-0,0185;0,0256;0,0145;56,35253371;37,51572536;0,69999999;
16:01:33:992;-0,0185;0,0256;0,0145;56,35253371;37,51572536;0,69999999;
16:01:33:994;-0,0185;0,0256;0,0145;56,35253371;37,51572536;0,69999999;
16:01:34:000;0,0276;-0,0299;-0,0378;56,35253371;37,51572536;0,69999999;
16:01:34:052;0,0276;-0,0299;-0,0378;56,35253371;37,51572536;0,69999999;
16:01:34:055;0,0276;-0,0299;-0,0378;56,35253371;37,51572536;0,69999999;
16:01:34:057;-0,0185;0,0309;-0,0045;56,35253371;37,51572536;0,69999999;
16:01:34:112;-0,0185;0,0309;-0,0045;56,35253371;37,51572536;0,69999999;
16:01:34:116;-0,0185;0,0309;-0,0045;56,35253371;37,51572536;0,69999999;
16:01:34:120;-0,0265;0,0651;0,0007;56,35253371;37,51572536;0,69999999;
16:01:34:173;-0,0265;0,0651;0,0007;56,35253371;37,51572536;0,69999999;
16:01:34:176;-0,0265;0,0651;0,0007;56,35253371;37,51572536;0,69999999;
16:01:34:179;0,0117;0,0076;0,0167;56,35253371;37,51572536;0,69999999;
16:01:34:244;0,0117;0,0076;0,0167;56,35253371;37,51572536;0,69999999;
16:01:34:246;0,0117;0,0076;0,0167;56,35253371;37,51572536;0,69999999;
16:01:34:249;0,0237;-0,0158;-0,0007;56,35253371;37,51572536;0,69999999;
16:01:34:303;0,0237;-0,0158;-0,0007;56,35253371;37,51572536;0,69999999;
16:01:34:307;-0,0089;0,0314;0,0026;56,35253371;37,51572536;0,69999999;
16:01:34:310;-0,0089;0,0314;0,0026;56,35253371;37,51572536;0,69999999;
16:01:34:363;-0,0089;0,0314;0,0026;56,35253371;37,51572536;0,69999999;
16:01:34:366;-0,0089;0,0314;0,0026;56,35253371;37,51572536;0,69999999;
16:01:34:371;-0,0103;0,0368;0,0067;56,35253371;37,51572536;0,69999999;
16:01:34:425;-0,0103;0,0368;0,0067;56,35253371;37,51572536;0,69999999;
16:01:34:429;-0,0103;0,0368;0,0067;56,35253371;37,51572536;0,69999999;
16:01:34:431;0,0171;0,0004;-0,0054;56,35253371;37,51572536;0,69999999;
16:01:34:451;0,0157;0,0012;-0,0047;56,35253371;37,51572536;0,69999999;
16:01:34:455;0,0157;0,0012;-0,0047;56,35253371;37,51572536;0,69999999;
16:01:34:505;0,0157;0,0012;-0,0047;56,35253371;37,51572536;0,69999999;
16:01:34:508;0,0157;0,0012;-0,0047;56,35253371;37,51572536;0,69999999;
16:01:34:510;-0,0073;-0,0050;-0,0069;56,35253371;37,51572536;0,69999999;
16:01:34:565;-0,0073;-0,0050;-0,0069;56,35253371;37,51572536;0,69999999;
16:01:34:567;-0,0073;-0,0050;-0,0069;56,35253371;37,51572536;0,69999999;
16:01:34:570;-0,0194;0,0235;0,0297;56,35253371;37,51572536;0,69999999;
16:01:34:625;-0,0194;0,0235;0,0297;56,35253371;37,51572536;0,69999999;
16:01:34:629;-0,0194;0,0235;0,0297;56,35253371;37,51572536;0,69999999;
16:01:34:631;-0,0012;0,0053;0,0406;56,35253371;37,51572536;0,69999999;
16:01:34:685;-0,0012;0,0053;0,0406;56,35253371;37,51572536;0,69999999;
16:01:34:687;-0,0012;0,0053;0,0406;56,35253371;37,51572536;0,69999999;
16:01:34:688;0,0319;-0,0440;-0,0466;56,35253371;37,51572536;0,69999999;
16:01:34:710;0,0319;-0,0440;-0,0466;56,35253371;37,51572536;0,69999999;
16:01:34:765;0,0319;-0,0440;-0,0466;56,35253371;37,51572536;0,69999999;
16:01:34:768;0,0319;-0,0440;-0,0466;56,35253371;37,51572536;0,69999999;
16:01:34:769;-0,0183;0,0360;0,0217;56,35253371;37,51572536;0,69999999;
16:01:34:826;-0,0183;0,0360;0,0217;56,35253371;37,51572536;0,69999999;
16:01:34:829;-0,0183;0,0360;0,0217;56,35253371;37,51572536;0,69999999;
16:01:34:832;-0,0239;-0,0042;0,0194;56,35253371;37,51572536;0,69999999;
16:01:34:886;-0,0239;-0,0042;0,0194;56,35253371;37,51572536;0,69999999;
16:01:34:889;-0,0239;-0,0042;0,0194;56,35253371;37,51572536;0,69999999;
16:01:34:890;0,0183;-0,0303;-0,0480;56,35253371;37,51572536;0,69999999;
16:01:34:947;0,0183;-0,0303;-0,0480;56,35253371;37,51572536;0,69999999;
16:01:34:950;0,0183;-0,0303;-0,0480;56,35253371;37,51572536;0,69999999;
16:01:34:952;-0,0160;0,0185;0,0081;56,35253371;37,51572536;0,69999999;
16:01:35:027;-0,0160;0,0185;0,0081;56,35253371;37,51572536;0,69999999;
16:01:35:031;-0,0160;0,0185;0,0081;56,35253371;37,51572536;0,69999999;
16:01:35:033;-0,0022;0,0216;0,0451;56,35253371;37,51572536;0,69999999;
16:01:35:088;-0,0022;0,0216;0,0451;56,35253371;37,51572536;0,69999999;
16:01:35:091;-0,0022;0,0216;0,0451;56,35253371;37,51572536;0,69999999;
16:01:35:094;0,0255;-0,0147;-0,0204;56,35253371;37,51572536;0,69999999;
16:01:35:149;0,0255;-0,0147;-0,0204;56,35253371;37,51572536;0,69999999;
16:01:35:152;0,0255;-0,0147;-0,0204;56,35253371;37,51572536;0,69999999;
16:01:35:155;-0,0014;-0,0204;-0,0326;56,35253371;37,51572536;0,69999999;
16:01:35:206;-0,0014;-0,0204;-0,0326;56,35253371;37,51572536;0,69999999;
16:01:35:209;-0,0014;-0,0204;-0,0326;56,35253371;37,51572536;0,69999999;
16:01:35:211;-0,0197;0,0594;-0,0010;56,35253371;37,51572536;0,69999999;
16:01:35:235;-0,0197;0,0594;-0,0010;56,35253371;37,51572536;0,69999999;
16:01:35:238;-0,0170;0,0535;-0,0008;56,35253371;37,51572536;0,69999999;
16:01:35:288;-0,0170;0,0535;-0,0008;56,35253371;37,51572536;0,69999999;
16:01:35:291;-0,0170;0,0535;-0,0008;56,35253371;37,51572536;0,69999999;
16:01:35:294;-0,0090;0,0186;0,0500;56,35253371;37,51572536;0,69999999;
16:01:35:349;-0,0090;0,0186;0,0500;56,35253371;37,51572536;0,69999999;
16:01:35:352;-0,0090;0,0186;0,0500;56,35253371;37,51572536;0,69999999;
16:01:35:355;0,0321;-0,0402;-0,0250;56,35253371;37,51572536;0,69999999;
16:01:35:408;0,0321;-0,0402;-0,0250;56,35253371;37,51572536;0,69999999;
16:01:35:410;0,0321;-0,0402;-0,0250;56,35253371;37,51572536;0,69999999;
16:01:35:413;-0,0152;0,0063;-0,0063;56,35253371;37,51572536;0,69999999;
16:01:35:469;-0,0152;0,0063;-0,0063;56,35253371;37,51572536;0,69999999;
16:01:35:472;-0,0152;0,0063;-0,0063;56,35253371;37,51572536;0,69999999;
16:01:35:481;-0,0030;0,0499;0,0122;56,35253371;37,51572536;0,69999999;
16:01:35:497;-0,0030;0,0499;0,0122;56,35253371;37,51572536;0,69999999;
16:01:35:550;-0,0030;0,0499;0,0122;56,35253371;37,51572536;0,69999999;
16:01:35:553;-0,0030;0,0499;0,0122;56,35253371;37,51572536;0,69999999;
16:01:35:556;0,0265;-0,0264;-0,0160;56,35253371;37,51572536;0,69999999;
16:01:35:610;0,0265;-0,0264;-0,0160;56,35253371;37,51572536;0,69999999;
16:01:35:613;0,0265;-0,0264;-0,0160;56,35253371;37,51572536;0,69999999;
16:01:35:624;-0,0160;0,0233;0,0120;56,35253371;37,51572536;0,69999999;
16:01:35:668;-0,0160;0,0233;0,0120;56,35253371;37,51572536;0,69999999;
16:01:35:670;-0,0160;0,0233;0,0120;56,35253371;37,51572536;0,69999999;
16:01:35:672;-0,0021;0,0411;0,0246;56,35253371;37,51572536;0,69999999;
16:01:35:716;-0,0021;0,0411;0,0246;56,35253371;37,51572536;0,69999999;
16:01:35:718;-0,0013;0,0375;0,0219;56,35252860;37,51574631;0,63000000;
16:01:35:756;-0,0013;0,0375;0,0219;56,35252860;37,51574631;0,63000000;
16:01:35:812;-0,0013;0,0375;0,0219;56,35252860;37,51574631;0,63000000;
16:01:35:815;-0,0013;0,0375;0,0219;56,35252860;37,51574631;0,63000000;
16:01:35:817;-0,0172;0,0211;-0,0156;56,35252860;37,51574631;0,63000000;
16:01:35:871;-0,0172;0,0211;-0,0156;56,35252860;37,51574631;0,63000000;
16:01:35:875;-0,0172;0,0211;-0,0156;56,35252860;37,51574631;0,63000000;
16:01:35:879;-0,0150;0,0613;0,0255;56,35252860;37,51574631;0,63000000;
16:01:35:931;-0,0150;0,0613;0,0255;56,35252860;37,51574631;0,63000000;
16:01:35:934;-0,0150;0,0613;0,0255;56,35252860;37,51574631;0,63000000;
16:01:35:936;-0,0058;0,0325;0,0139;56,35252860;37,51574631;0,63000000;
16:01:35:991;-0,0058;0,0325;0,0139;56,35252860;37,51574631;0,63000000;
16:01:35:995;-0,0058;0,0325;0,0139;56,35252860;37,51574631;0,63000000;
16:01:35:997;0,0317;0,0000;-0,0499;56,35252860;37,51574631;0,63000000;
16:01:36:020;0,0276;0,0005;-0,0443;56,35252860;37,51574631;0,63000000;
16:01:36:024;0,0276;0,0005;-0,0443;56,35252860;37,51574631;0,63000000;
16:01:36:072;0,0276;0,0005;-0,0443;56,35252860;37,51574631;0,63000000;
16:01:36:076;0,0276;0,0005;-0,0443;56,35252860;37,51574631;0,63000000;
16:01:36:078;-0,0098;0,0438;-0,0123;56,35252860;37,51574631;0,63000000;
16:01:36:134;-0,0098;0,0438;-0,0123;56,35252860;37,51574631;0,63000000;
16:01:36:136;-0,0098;0,0438;-0,0123;56,35252860;37,51574631;0,63000000;
16:01:36:139;0,0036;0,0315;0,0441;56,35252860;37,51574631;0,63000000;
16:01:36:193;0,0036;0,0315;0,0441;56,35252860;37,51574631;0,63000000;
16:01:36:197;0,0036;0,0315;0,0441;56,35252860;37,51574631;0,63000000;
16:01:36:200;0,0305;-0,0183;0,0073;56,35252860;37,51574631;0,63000000;
16:01:36:230;0,0305;-0,0183;0,0073;56,35252860;37,51574631;0,63000000;
16:01:36:272;0,0305;-0,0183;0,0073;56,35252860;37,51574631;0,63000000;
16:01:36:276;-0,0334;0,0360;-0,0109;56,35252860;37,51574631;0,63000000;
16:01:36:278;-0,0334;0,0360;-0,0109;56,35252860;37,51574631;0,63000000;
16:01:36:335;-0,0334;0,0360;-0,0109;56,35252860;37,51574631;0,63000000;
16:01:36:337;-0,0334;0,0360;-0,0109;56,35252860;37,51574631;0,63000000;
16:01:36:339;-0,0196;0,0088;0,0017;56,35252860;37,51574631;0,63000000;
16:01:36:394;-0,0196;0,0088;0,0017;56,35252860;37,51574631;0,63000000;
16:01:36:398;-0,0196;0,0088;0,0017;56,35252860;37,51574631;0,63000000;
16:01:36:400;0,0326;-0,0170;-0,0364;56,35252860;37,51574631;0,63000000;
16:01:36:455;0,0326;-0,0170;-0,0364;56,35252860;37,51574631;0,63000000;
16:01:36:459;-0,0252;0,0285;-0,0028;56,35252860;37,51574631;0,63000000;
