
time;ax;ay;az;Latitude;Longitude;Speed (m/s);
19:47:09:866;0,0000;0,0000;0,0000;0,00000000;0,00000000;0,00000000;
19:47:09:868;0,0000;0,0000;0,0000;56,37997882;37,53249664;3,95000005;
19:47:09:869;0,0000;0,0000;0,0000;56,37997882;37,53249664;3,95000005;
19:47:09:869;0,0000;0,0000;0,0000;56,37997882;37,53249664;3,95000005;
19:47:09:870;0,0000;0,0000;0,0000;56,37997882;37,53249664;3,95000005;
19:47:09:871;0,0000;0,0000;0,0000;56,37997882;37,53249664;3,95000005;
19:47:09:871;0,0000;0,0000;0,0000;56,37997882;37,53249664;3,95000005;
19:47:09:967;0,0000;0,0000;0,0000;56,37997882;37,53249664;3,95000005;
19:47:09:969;0,0000;0,0000;0,0000;56,37997882;37,53249664;3,95000005;
19:47:09:970;0,0000;0,0000;0,0000;56,37997882;37,53249664;3,95000005;
19:47:09:971;0,0000;0,0000;0,0000;56,37997882;37,53249664;3,95000005;
19:47:10:029;0,0000;0,0000;0,0000;56,37997882;37,53249664;3,95000005;
19:47:10:031;0,0000;0,0000;-0,0000;56,37997882;37,53249664;3,95000005;
19:47:10:048;0,0000;0,0000;-0,0000;56,37997882;37,53249664;3,95000005;
19:47:10:050;0,0000;0,0000;-0,0000;56,37997882;37,53249664;3,95000005;
19:47:10:052;0,0000;0,0000;-0,0000;56,37997882;37,53249664;3,95000005;
19:47:10:054;0,0000;0,0000;-0,0000;56,37997882;37,53249664;3,95000005;
19:47:10:099;0,0000;0,0000;-0,0000;56,37997882;37,53249664;3,95000005;
19:47:10:100;0,2114;0,2432;-0,0394;56,37997882;37,53249664;3,95000005;
19:47:10:120;0,2114;0,2432;-0,0394;56,37997882;37,53249664;3,95000005;
19:47:10:121;0,1225;0,1126;0,0133;56,37997882;37,53249664;3,95000005;
19:47:10:123;0,1225;0,1126;0,0133;56,37997882;37,53249664;3,95000005;
19:47:10:124;0,1225;0,1126;0,0133;56,37997882;37,53249664;3,95000005;
19:47:10:127;0,1225;0,1126;0,0133;56,37997882;37,53249664;3,95000005;
19:47:10:129;0,1225;0,1126;0,0133;56,37997882;37,53249664;3,95000005;
19:47:10:179;0,1225;0,1126;0,0133;56,37997882;37,53249664;3,95000005;
19:47:10:180;-0,1788;-0,0671;-0,1474;56,37997882;37,53249664;3,95000005;
19:47:10:240;-0,1788;-0,0671;-0,1474;56,37997882;37,53249664;3,95000005;
19:47:10:242;-0,1788;-0,0671;-0,1474;56,37997882;37,53249664;3,95000005;
19:47:10:243;-0,1788;-0,0671;-0,1474;56,37997882;37,53249664;3,95000005;
19:47:10:246;-0,1788;-0,0671;-0,1474;56,37997882;37,53249664;3,95000005;
19:47:10:247;-0,1788;-0,0671;-0,1474;56,37997882;37,53249664;3,95000005;
19:47:10:249;-0,1788;-0,0671;-0,1474;56,37997882;37,53249664;3,95000005;
19:47:10:251;-0,1788;-0,0671;-0,1474;56,37997882;37,53249664;3,95000005;
19:47:10:252;-0,3677;0,2250;-0,5606;56,37997882;37,53249664;3,95000005;
19:47:10:300;-0,3677;0,2250;-0,5606;56,37997882;37,53249664;3,95000005;
19:47:10:301;0,3277;0,4455;0,0278;56,37997882;37,53249664;3,95000005;
19:47:10:318;0,3277;0,4455;0,0278;56,37997882;37,53249664;3,95000005;
19:47:10:319;0,3277;0,4455;0,0278;56,37997882;37,53249664;3,95000005;
19:47:10:321;0,3277;0,4455;0,0278;56,37997882;37,53249664;3,95000005;
19:47:10:369;0,3277;0,4455;0,0278;56,37997882;37,53249664;3,95000005;
19:47:10:370;0,3715;0,1274;0,6097;56,37997882;37,53249664;3,95000005;
19:47:10:441;0,3715;0,1274;0,6097;56,37997882;37,53249664;3,95000005;
19:47:10:442;0,3715;0,1274;0,6097;56,37997882;37,53249664;3,95000005;
19:47:10:443;0,3715;0,1274;0,6097;56,37997882;37,53249664;3,95000005;
19:47:10:443;0,3715;0,1274;0,6097;56,37997882;37,53249664;3,95000005;
19:47:10:444;0,3715;0,1274;0,6097;56,37997882;37,53249664;3,95000005;
19:47:10:444;0,3715;0,1274;0,6097;56,37997882;37,53249664;3,95000005;
19:47:10:445;0,3715;0,1274;0,6097;56,37997882;37,53249664;3,95000005;
19:47:10:445;0,3715;0,1274;0,6097;56,37997882;37,53249664;3,95000005;
19:47:10:446;-0,1694;-0,1093;0,1501;56,37997882;37,53249664;3,95000005;
19:47:10:500;-0,1694;-0,1093;0,1501;56,37997882;37,53249664;3,95000005;
19:47:10:501;-0,3265;0,0474;-0,2484;56,37997882;37,53249664;3,95000005;
19:47:10:518;-0,3265;0,0474;-0,2484;56,37997882;37,53249664;3,95000005;
19:47:10:518;-0,3265;0,0474;-0,2484;56,37997882;37,53249664;3,95000005;
19:47:10:519;-0,3265;0,0474;-0,2484;56,37997882;37,53249664;3,95000005;
19:47:10:571;-0,3265;0,0474;-0,2484;56,37997882;37,53249664;3,95000005;
19:47:10:572;-0,0879;-0,1496;-0,1141;56,37997882;37,53249664;3,95000005;
19:47:10:582;-0,0879;-0,1496;-0,1141;56,37997882;37,53249664;3,95000005;
19:47:10:584;-0,0879;-0,1496;-0,1141;56,37997882;37,53249664;3,95000005;
19:47:10:586;-0,0879;-0,1496;-0,1141;56,37997882;37,53249664;3,95000005;
19:47:10:631;-0,0879;-0,1496;-0,1141;56,37997882;37,53249664;3,95000005;
19:47:10:633;-0,1135;0,0208;-0,2612;56,37997882;37,53249664;3,95000005;
19:47:10:658;-0,1135;0,0208;-0,2612;56,37997882;37,53249664;3,95000005;
19:47:10:660;-0,1135;0,0208;-0,2612;56,37997882;37,53249664;3,95000005;
19:47:10:662;-0,1135;0,0208;-0,2612;56,37997882;37,53249664;3,95000005;
19:47:10:663;-0,1135;0,0208;-0,2612;56,37997882;37,53249664;3,95000005;
19:47:10:714;-0,1135;0,0208;-0,2612;56,37997882;37,53249664;3,95000005;
19:47:10:716;0,2314;0,3580;-0,5076;56,37997882;37,53249664;3,95000005;
19:47:10:737;0,2314;0,3580;-0,5076;56,37997882;37,53249664;3,95000005;
19:47:10:738;0,1500;0,3434;-0,4855;56,37997882;37,53249664;3,95000005;
19:47:10:742;0,1500;0,3434;-0,4855;56,37997882;37,53249664;3,95000005;
19:47:10:744;0,1500;0,3434;-0,4855;56,37997882;37,53249664;3,95000005;
19:47:10:747;0,1500;0,3434;-0,4855;56,37997882;37,53249664;3,95000005;
19:47:10:749;0,1500;0,3434;-0,4855;56,37997882;37,53249664;3,95000005;
19:47:10:792;0,1500;0,3434;-0,4855;56,37997882;37,53249664;3,95000005;
19:47:10:794;0,7723;0,3864;-0,1409;56,37997882;37,53249664;3,95000005;
19:47:10:796;0,7723;0,3864;-0,1409;56,37997882;37,53249664;3,95000005;
19:47:10:797;0,7723;0,3864;-0,1409;56,37997882;37,53249664;3,95000005;
19:47:10:798;0,7723;0,3864;-0,1409;56,37997882;37,53249664;3,95000005;
19:47:10:853;0,7723;0,3864;-0,1409;56,37997882;37,53249664;3,95000005;
19:47:10:855;-0,0253;-0,1371;0,5249;56,37997882;37,53249664;3,95000005;
19:47:10:874;-0,0253;-0,1371;0,5249;56,37997882;37,53249664;3,95000005;
19:47:10:875;-0,0253;-0,1371;0,5249;56,37997882;37,53249664;3,95000005;
19:47:10:877;-0,0253;-0,1371;0,5249;56,37997882;37,53249664;3,95000005;
19:47:10:879;-0,0253;-0,1371;0,5249;56,37997882;37,53249664;3,95000005;
19:47:10:905;-0,0253;-0,1371;0,5249;56,37997882;37,53249664;3,95000005;
19:47:10:908;-0,0333;0,0014;-0,2843;56,37997882;37,53249664;3,95000005;
19:47:10:951;-0,0333;0,0014;-0,2843;56,37997882;37,53249664;3,95000005;
19:47:10:952;-0,0333;0,0014;-0,2843;56,37997882;37,53249664;3,95000005;
19:47:10:953;-0,0333;0,0014;-0,2843;56,37997882;37,53249664;3,95000005;
19:47:10:954;-0,0333;0,0014;-0,2843;56,37997882;37,53249664;3,95000005;
19:47:11:004;-0,0333;0,0014;-0,2843;56,37997882;37,53249664;3,95000005;
19:47:11:008;-0,4578;-0,2200;0,0524;56,37997882;37,53249664;3,95000005;
19:47:11:015;-0,4578;-0,2200;0,0524;56,37997882;37,53249664;3,95000005;
19:47:11:018;-0,4578;-0,2200;0,0524;56,37997882;37,53249664;3,95000005;
19:47:11:020;-0,4578;-0,2200;0,0524;56,37997882;37,53249664;3,95000005;
19:47:11:065;-0,2255;0,1707;0,0368;56,37997882;37,53249664;3,95000005;
19:47:11:067;-0,2255;0,1707;0,0368;56,37997882;37,53249664;3,95000005;
19:47:11:089;-0,2255;0,1707;0,0368;56,37997882;37,53249664;3,95000005;
19:47:11:091;-0,2067;0,2592;-0,0495;56,37997882;37,53249664;3,95000005;
19:47:11:093;-0,2067;0,2592;-0,0495;56,37997882;37,53249664;3,95000005;
19:47:11:095;-0,2067;0,2592;-0,0495;56,37997882;37,53249664;3,95000005;
19:47:11:096;-0,2067;0,2592;-0,0495;56,37997882;37,53249664;3,95000005;
19:47:11:097;-0,2067;0,2592;-0,0495;56,37997882;37,53249664;3,95000005;
19:47:11:144;-0,2067;0,2592;-0,0495;56,37997882;37,53249664;3,95000005;
19:47:11:145;0,3126;0,0852;0,3000;56,37997882;37,53249664;3,95000005;
19:47:11:167;0,3126;0,0852;0,3000;56,37997882;37,53249664;3,95000005;
19:47:11:168;0,3126;0,0852;0,3000;56,37997882;37,53249664;3,95000005;
19:47:11:169;0,3126;0,0852;0,3000;56,37997882;37,53249664;3,95000005;
19:47:11:171;0,3126;0,0852;0,3000;56,37997882;37,53249664;3,95000005;
19:47:11:226;0,3126;0,0852;0,3000;56,37997882;37,53249664;3,95000005;
19:47:11:230;0,0088;-0,3061;0,3836;56,37997882;37,53249664;3,95000005;
19:47:11:232;0,0088;-0,3061;0,3836;56,37997882;37,53249664;3,95000005;
19:47:11:234;0,0088;-0,3061;0,3836;56,37997882;37,53249664;3,95000005;
19:47:11:236;0,0088;-0,3061;0,3836;56,37997882;37,53249664;3,95000005;
19:47:11:287;0,0088;-0,3061;0,3836;56,37997882;37,53249664;3,95000005;
19:47:11:288;0,1274;0,0251;-0,0942;56,37997882;37,53249664;3,95000005;
19:47:11:306;0,1274;0,0251;-0,0942;56,37997882;37,53249664;3,95000005;
19:47:11:308;0,1274;0,0251;-0,0942;56,37997882;37,53249664;3,95000005;
19:47:11:310;0,1274;0,0251;-0,0942;56,37997882;37,53249664;3,95000005;
19:47:11:314;0,1274;0,0251;-0,0942;56,37997882;37,53249664;3,95000005;
19:47:11:367;0,1274;0,0251;-0,0942;56,37997882;37,53249664;3,95000005;
19:47:11:369;-0,1673;-0,0362;-0,1518;56,37997882;37,53249664;3,95000005;
19:47:11:383;-0,1673;-0,0362;-0,1518;56,37997882;37,53249664;3,95000005;
19:47:11:384;-0,1673;-0,0362;-0,1518;56,37997882;37,53249664;3,95000005;
19:47:11:385;-0,1673;-0,0362;-0,1518;56,37997882;37,53249664;3,95000005;
19:47:11:431;-0,1241;-0,1269;0,3050;56,37997882;37,53249664;3,95000005;
19:47:11:433;-0,1241;-0,1269;0,3050;56,37997882;37,53249664;3,95000005;
19:47:11:447;-0,1241;-0,1269;0,3050;56,37997882;37,53249664;3,95000005;
19:47:11:449;-0,1241;-0,1269;0,3050;56,37997882;37,53249664;3,95000005;
19:47:11:451;-0,1241;-0,1269;0,3050;56,37997882;37,53249664;3,95000005;
19:47:11:487;-0,1241;-0,1269;0,3050;56,37997882;37,53249664;3,95000005;
19:47:11:489;0,3065;0,1250;-0,1205;56,37997882;37,53249664;3,95000005;
19:47:11:523;0,3065;0,1250;-0,1205;56,37997882;37,53249664;3,95000005;
19:47:11:525;0,3178;0,0988;-0,0940;56,37997882;37,53249664;3,95000005;
19:47:11:528;0,3178;0,0988;-0,0940;56,37997882;37,53249664;3,95000005;
19:47:11:531;0,3178;0,0988;-0,0940;56,37997882;37,53249664;3,95000005;
19:47:11:533;0,3178;0,0988;-0,0940;56,37997882;37,53249664;3,95000005;
19:47:11:534;0,3178;0,0988;-0,0940;56,37997882;37,53249664;3,95000005;
19:47:11:577;0,0959;-0,0408;-0,2744;56,37997882;37,53249664;3,95000005;
19:47:11:579;0,0959;-0,0408;-0,2744;56,37997882;37,53249664;3,95000005;
19:47:11:600;0,0959;-0,0408;-0,2744;56,37997882;37,53249664;3,95000005;
19:47:11:602;0,0959;-0,0408;-0,2744;56,37997882;37,53249664;3,95000005;
19:47:11:603;0,0959;-0,0408;-0,2744;56,37997882;37,53249664;3,95000005;
19:47:11:604;0,0959;-0,0408;-0,2744;56,37997882;37,53249664;3,95000005;
19:47:11:659;0,0959;-0,0408;-0,2744;56,37997882;37,53249664;3,95000005;
19:47:11:661;-0,0928;-0,1623;0,3558;56,37997882;37,53249664;3,95000005;
19:47:11:664;-0,0928;-0,1623;0,3558;56,37997882;37,53249664;3,95000005;
19:47:11:665;-0,0928;-0,1623;0,3558;56,37997882;37,53249664;3,95000005;
19:47:11:667;-0,0928;-0,1623;0,3558;56,37997882;37,53249664;3,95000005;
19:47:11:690;-0,0928;-0,1623;0,3558;56,37997882;37,53249664;3,95000005;
19:47:11:693;-0,1026;-0,2064;0,3879;56,37997882;37,53249664;3,95000005;
19:47:11:737;-0,1026;-0,2064;0,3879;56,37997882;37,53249664;3,95000005;
19:47:11:739;-0,1026;-0,2064;0,3879;56,37997882;37,53249664;3,95000005;
19:47:11:741;-0,1026;-0,2064;0,3879;56,37997882;37,53249664;3,95000005;
19:47:11:745;-0,1026;-0,2064;0,3879;56,37997882;37,53249664;3,95000005;
19:47:11:797;-0,1026;-0,2064;0,3879;56,37997882;37,53249664;3,95000005;
19:47:11:798;0,3681;-0,2899;0,1459;56,37997882;37,53249664;3,95000005;
19:47:11:815;0,3681;-0,2899;0,1459;56,37997882;37,53249664;3,95000005;
19:47:11:816;0,4072;-0,2397;0,1092;56,37997882;37,53249664;3,95000005;
19:47:11:817;0,4072;-0,2397;0,1092;56,37997882;37,53249664;3,95000005;
19:47:11:818;0,4072;-0,2397;0,1092;56,37997882;37,53249664;3,95000005;
19:47:11:821;0,4072;-0,2397;0,1092;56,37997882;37,53249664;3,95000005;
19:47:11:822;0,4072;-0,2397;0,1092;56,37997882;37,53249664;3,95000005;
19:47:11:868;0,4072;-0,2397;0,1092;56,37997882;37,53249664;3,95000005;
19:47:11:869;-0,7969;-0,3972;0,3586;56,37997882;37,53249664;3,95000005;
19:47:11:878;-0,7969;-0,3972;0,3586;56,37997882;37,53249664;3,95000005;
19:47:11:880;-0,7969;-0,3972;0,3586;56,37997882;37,53249664;3,95000005;
19:47:11:881;-0,7969;-0,3972;0,3586;56,37997882;37,53249664;3,95000005;
19:47:11:930;-0,7969;-0,3972;0,3586;56,37997882;37,53249664;3,95000005;
19:47:11:932;0,1137;-0,1585;-0,0821;56,37997882;37,53249664;3,95000005;
19:47:11:954;0,1137;-0,1585;-0,0821;56,37997882;37,53249664;3,95000005;
19:47:11:955;0,1137;-0,1585;-0,0821;56,37997882;37,53249664;3,95000005;
19:47:11:957;0,1137;-0,1585;-0,0821;56,37997882;37,53249664;3,95000005;
19:47:11:959;0,1137;-0,1585;-0,0821;56,37997882;37,53249664;3,95000005;
19:47:12:014;0,1137;-0,1585;-0,0821;56,37997882;37,53249664;3,95000005;
19:47:12:016;-0,1874;-0,0497;-0,0100;56,37997882;37,53249664;3,95000005;
19:47:12:033;-0,1874;-0,0497;-0,0100;56,37997882;37,53249664;3,95000005;
19:47:12:035;-0,1874;-0,0497;-0,0100;56,37997882;37,53249664;3,95000005;
19:47:12:037;-0,1874;-0,0497;-0,0100;56,37997882;37,53249664;3,95000005;
19:47:12:039;-0,1874;-0,0497;-0,0100;56,37997882;37,53249664;3,95000005;
19:47:12:090;-0,1874;-0,0497;-0,0100;56,37997882;37,53249664;3,95000005;
19:47:12:093;0,4199;0,1086;0,6120;56,37997882;37,53249664;3,95000005;
19:47:12:098;0,4199;0,1086;0,6120;56,37997882;37,53249664;3,95000005;
19:47:12:100;0,4199;0,1086;0,6120;56,37997882;37,53249664;3,95000005;
19:47:12:101;0,4199;0,1086;0,6120;56,37997882;37,53249664;3,95000005;
19:47:12:150;0,4199;0,1086;0,6120;56,37997882;37,53249664;3,95000005;
19:47:12:152;1,4963;0,3630;-0,3714;56,37997882;37,53249664;3,95000005;
19:47:12:169;1,4963;0,3630;-0,3714;56,37997882;37,53249664;3,95000005;
19:47:12:171;1,5985;0,4133;-0,4033;56,37997882;37,53249664;3,95000005;
19:47:12:173;1,5985;0,4133;-0,4033;56,37997882;37,53249664;3,95000005;
19:47:12:175;1,5985;0,4133;-0,4033;56,37997882;37,53249664;3,95000005;
19:47:12:176;1,5985;0,4133;-0,4033;56,37997882;37,53249664;3,95000005;
19:47:12:178;1,5985;0,4133;-0,4033;56,37997882;37,53249664;3,95000005;
19:47:12:249;1,5985;0,4133;-0,4033;56,37997882;37,53249664;3,95000005;
19:47:12:251;1,5985;0,4133;-0,4033;56,37997882;37,53249664;3,95000005;
19:47:12:254;1,5985;0,4133;-0,4033;56,37997882;37,53249664;3,95000005;
19:47:12:255;1,5985;0,4133;-0,4033;56,37997882;37,53249664;3,95000005;
19:47:12:257;0,2482;1,0508;-1,6456;56,37997882;37,53249664;3,95000005;
19:47:12:301;0,2482;1,0508;-1,6456;56,37997882;37,53249664;3,95000005;
19:47:12:302;2,1373;1,7526;-0,7866;56,37997882;37,53249664;3,95000005;
19:47:12:308;2,1373;1,7526;-0,7866;56,37997882;37,53249664;3,95000005;
19:47:12:310;2,1373;1,7526;-0,7866;56,37997882;37,53249664;3,95000005;
19:47:12:312;2,1373;1,7526;-0,7866;56,37997882;37,53249664;3,95000005;
19:47:12:363;2,1373;1,7526;-0,7866;56,37997882;37,53249664;3,95000005;
19:47:12:366;-0,6611;-0,3843;-0,7604;56,37997882;37,53249664;3,95000005;
19:47:12:387;-0,6611;-0,3843;-0,7604;56,37997882;37,53249664;3,95000005;
19:47:12:390;-0,6611;-0,3843;-0,7604;56,37997882;37,53249664;3,95000005;
19:47:12:394;-0,6611;-0,3843;-0,7604;56,37997882;37,53249664;3,95000005;
19:47:12:396;-0,6611;-0,3843;-0,7604;56,37997882;37,53249664;3,95000005;
19:47:12:442;-0,6611;-0,3843;-0,7604;56,37997882;37,53249664;3,95000005;
19:47:12:444;-2,6226;-1,7976;0,9275;56,37997882;37,53249664;3,95000005;
19:47:12:465;-2,6226;-1,7976;0,9275;56,37997882;37,53249664;3,95000005;
19:47:12:468;-2,6226;-1,7976;0,9275;56,37997882;37,53249664;3,95000005;
19:47:12:470;-2,6226;-1,7976;0,9275;56,37997882;37,53249664;3,95000005;
19:47:12:472;-2,6226;-1,7976;0,9275;56,37997882;37,53249664;3,95000005;
19:47:12:476;-2,6226;-1,7976;0,9275;56,37997882;37,53249664;3,95000005;
19:47:12:478;-2,5798;-1,5022;0,7537;56,37997882;37,53249664;3,95000005;
19:47:12:527;-2,5798;-1,5022;0,7537;56,37997882;37,53249664;3,95000005;
19:47:12:534;-2,5798;-1,5022;0,7537;56,37997882;37,53249664;3,95000005;
19:47:12:536;-4,5519;-2,1849;1,9138;56,37997882;37,53249664;3,95000005;
19:47:12:594;-4,5519;-2,1849;1,9138;56,37997882;37,53249664;3,95000005;
19:47:12:596;-2,9117;-1,6510;0,7580;56,37997882;37,53249664;3,95000005;
19:47:12:599;-2,9117;-1,6510;0,7580;56,37997882;37,53249664;3,95000005;
19:47:12:601;-2,9117;-1,6510;0,7580;56,37997882;37,53249664;3,95000005;
19:47:12:603;-2,9117;-1,6510;0,7580;56,37997882;37,53249664;3,95000005;
19:47:12:604;-2,9117;-1,6510;0,7580;56,37997882;37,53249664;3,95000005;
19:47:12:605;-2,9117;-1,6510;0,7580;56,37997882;37,53249664;3,95000005;
19:47:12:607;-2,9117;-1,6510;0,7580;56,37997882;37,53249664;3,95000005;
19:47:12:653;-2,9117;-1,6510;0,7580;56,37997882;37,53249664;3,95000005;
19:47:12:655;-1,3521;-1,0204;-0,5200;56,37997882;37,53249664;3,95000005;
19:47:12:674;-1,3521;-1,0204;-0,5200;56,37997882;37,53249664;3,95000005;
19:47:12:677;-1,3521;-1,0204;-0,5200;56,37997882;37,53249664;3,95000005;
19:47:12:679;-1,3521;-1,0204;-0,5200;56,37997882;37,53249664;3,95000005;
19:47:12:682;-1,3521;-1,0204;-0,5200;56,37997882;37,53249664;3,95000005;
19:47:12:732;-1,3521;-1,0204;-0,5200;56,37997882;37,53249664;3,95000005;
19:47:12:733;0,9722;-1,4522;0,5246;56,37997882;37,53249664;3,95000005;
19:47:12:740;0,9722;-1,4522;0,5246;56,37997882;37,53249664;3,95000005;
19:47:12:742;0,9722;-1,4522;0,5246;56,37997882;37,53249664;3,95000005;
19:47:12:744;0,9722;-1,4522;0,5246;56,37997882;37,53249664;3,95000005;
19:47:12:792;0,9722;-1,4522;0,5246;56,37997882;37,53249664;3,95000005;
19:47:12:796;4,6206;0,0374;1,0418;56,37997882;37,53249664;3,95000005;
19:47:12:817;4,6206;0,0374;1,0418;56,37997882;37,53249664;3,95000005;
19:47:12:818;4,6206;0,0374;1,0418;56,35222604;37,52204032;9,47000027;
19:47:12:820;4,6206;0,0374;1,0418;56,35222604;37,52204032;9,47000027;
19:47:12:821;4,6206;0,0374;1,0418;56,35222604;37,52204032;9,47000027;
19:47:12:874;4,6206;0,0374;1,0418;56,35222604;37,52204032;9,47000027;
19:47:12:876;3,4965;0,7906;-1,2189;56,35222604;37,52204032;9,47000027;
19:47:12:887;3,4965;0,7906;-1,2189;56,35222604;37,52204032;9,47000027;
19:47:12:890;3,4965;0,7906;-1,2189;56,35222604;37,52204032;9,47000027;
19:47:12:892;3,4965;0,7906;-1,2189;56,35222604;37,52204032;9,47000027;
19:47:12:947;3,4965;0,7906;-1,2189;56,35222604;37,52204032;9,47000027;
19:47:12:950;3,9650;1,0464;3,3010;56,35222604;37,52204032;9,47000027;
19:47:12:958;3,9650;1,0464;3,3010;56,35222604;37,52204032;9,47000027;
19:47:12:961;3,9650;1,0464;3,3010;56,35222604;37,52204032;9,47000027;
19:47:12:963;3,9650;1,0464;3,3010;56,35222604;37,52204032;9,47000027;
19:47:12:997;3,9650;1,0464;3,3010;56,35222604;37,52204032;9,47000027;
19:47:12:998;-0,3545;0,1743;0,9408;56,35222604;37,52204032;9,47000027;
19:47:13:036;-0,3545;0,1743;0,9408;56,35222604;37,52204032;9,47000027;
19:47:13:037;0,1539;-0,0890;0,3990;56,35222604;37,52204032;9,47000027;
19:47:13:041;0,1539;-0,0890;0,3990;56,35222604;37,52204032;9,47000027;
19:47:13:043;0,1539;-0,0890;0,3990;56,35222604;37,52204032;9,47000027;
19:47:13:046;0,1539;-0,0890;0,3990;56,35222604;37,52204032;9,47000027;
19:47:13:048;0,1539;-0,0890;0,3990;56,35222604;37,52204032;9,47000027;
19:47:13:050;0,1539;-0,0890;0,3990;56,35222604;37,52204032;9,47000027;
19:47:13:099;0,4478;-0,9399;0,1309;56,35222604;37,52204032;9,47000027;
19:47:13:102;0,4478;-0,9399;0,1309;56,35222604;37,52204032;9,47000027;
19:47:13:122;0,4478;-0,9399;0,1309;56,35222604;37,52204032;9,47000027;
19:47:13:125;0,4478;-0,9399;0,1309;56,35222604;37,52204032;9,47000027;
19:47:13:126;0,4478;-0,9399;0,1309;56,35222604;37,52204032;9,47000027;
19:47:13:166;0,4478;-0,9399;0,1309;56,35222604;37,52204032;9,47000027;
19:47:13:168;0,7985;-1,7063;1,5987;56,35222604;37,52204032;9,47000027;
19:47:13:173;0,7985;-1,7063;1,5987;56,35222604;37,52204032;9,47000027;
19:47:13:175;0,7985;-1,7063;1,5987;56,35222604;37,52204032;9,47000027;
19:47:13:177;0,7985;-1,7063;1,5987;56,35222604;37,52204032;9,47000027;
19:47:13:226;0,7985;-1,7063;1,5987;56,35222604;37,52204032;9,47000027;
19:47:13:228;-0,4159;-1,1150;1,3978;56,35222604;37,52204032;9,47000027;
19:47:13:252;-0,4159;-1,1150;1,3978;56,35222604;37,52204032;9,47000027;
19:47:13:254;-0,4159;-1,1150;1,3978;56,35222604;37,52204032;9,47000027;
19:47:13:256;-0,4159;-1,1150;1,3978;56,35222604;37,52204032;9,47000027;
19:47:13:258;-0,4159;-1,1150;1,3978;56,35222604;37,52204032;9,47000027;
19:47:13:307;-0,4159;-1,1150;1,3978;56,35222604;37,52204032;9,47000027;
19:47:13:310;-0,6636;0,1884;0,1660;56,35222604;37,52204032;9,47000027;
19:47:13:337;-0,6636;0,1884;0,1660;56,35222604;37,52204032;9,47000027;
19:47:13:340;-0,6636;0,1884;0,1660;56,35222604;37,52204032;9,47000027;
19:47:13:342;-0,6636;0,1884;0,1660;56,35222604;37,52204032;9,47000027;
19:47:13:345;-0,6636;0,1884;0,1660;56,35222604;37,52204032;9,47000027;
19:47:13:347;-0,6636;0,1884;0,1660;56,35222604;37,52204032;9,47000027;
19:47:13:350;-0,6056;-0,1123;0,3718;56,35222604;37,52204032;9,47000027;
19:47:13:388;-0,6056;-0,1123;0,3718;56,35222604;37,52204032;9,47000027;
19:47:13:391;-0,2278;0,4944;-0,5261;56,35222604;37,52204032;9,47000027;
19:47:13:393;-0,2278;0,4944;-0,5261;56,35222604;37,52204032;9,47000027;
19:47:13:394;-0,2278;0,4944;-0,5261;56,35222604;37,52204032;9,47000027;
19:47:13:396;-0,2278;0,4944;-0,5261;56,35222604;37,52204032;9,47000027;
19:47:13:447;-0,2278;0,4944;-0,5261;56,35222604;37,52204032;9,47000027;
19:47:13:451;-1,0730;-1,5369;2,0957;56,35222604;37,52204032;9,47000027;
19:47:13:471;-1,0730;-1,5369;2,0957;56,35222604;37,52204032;9,47000027;
19:47:13:474;-1,0730;-1,5369;2,0957;56,35222604;37,52204032;9,47000027;
19:47:13:476;-1,0730;-1,5369;2,0957;56,35222604;37,52204032;9,47000027;
19:47:13:478;-1,0730;-1,5369;2,0957;56,35222604;37,52204032;9,47000027;
19:47:13:513;-1,0730;-1,5369;2,0957;56,35222604;37,52204032;9,47000027;
19:47:13:515;0,7084;-1,2692;0,6913;56,35222604;37,52204032;9,47000027;
19:47:13:545;0,7084;-1,2692;0,6913;56,35222604;37,52204032;9,47000027;
19:47:13:550;0,7084;-1,2692;0,6913;56,35222604;37,52204032;9,47000027;
19:47:13:552;0,7084;-1,2692;0,6913;56,35222604;37,52204032;9,47000027;
19:47:13:553;0,7084;-1,2692;0,6913;56,35222604;37,52204032;9,47000027;
19:47:13:599;0,7084;-1,2692;0,6913;56,35222604;37,52204032;9,47000027;
19:47:13:602;3,7956;-2,0589;-0,8056;56,35222604;37,52204032;9,47000027;
19:47:13:607;3,7956;-2,0589;-0,8056;56,35222604;37,52204032;9,47000027;
19:47:13:610;3,7956;-2,0589;-0,8056;56,35222604;37,52204032;9,47000027;
19:47:13:612;3,7956;-2,0589;-0,8056;56,35222604;37,52204032;9,47000027;
19:47:13:659;3,7956;-2,0589;-0,8056;56,35222604;37,52204032;9,47000027;
19:47:13:662;4,6795;-1,2553;-0,2390;56,35222604;37,52204032;9,47000027;
19:47:13:683;4,6795;-1,2553;-0,2390;56,35222604;37,52204032;9,47000027;
19:47:13:685;4,4176;-0,2865;-0,8060;56,35222604;37,52204032;9,47000027;
19:47:13:687;4,4176;-0,2865;-0,8060;56,35222604;37,52204032;9,47000027;
19:47:13:689;4,4176;-0,2865;-0,8060;56,35222604;37,52204032;9,47000027;
19:47:13:691;4,4176;-0,2865;-0,8060;56,35222604;37,52204032;9,47000027;
19:47:13:694;4,4176;-0,2865;-0,8060;56,35222604;37,52204032;9,47000027;
19:47:13:739;4,4176;-0,2865;-0,8060;56,35222604;37,52204032;9,47000027;
19:47:13:741;2,3574;0,7363;-0,4987;56,35222604;37,52204032;9,47000027;
19:47:13:764;2,3574;0,7363;-0,4987;56,35222604;37,52204032;9,47000027;
19:47:13:767;2,3574;0,7363;-0,4987;56,35222604;37,52204032;9,47000027;
19:47:13:770;2,3574;0,7363;-0,4987;56,35222604;37,52204032;9,47000027;
19:47:13:772;2,3574;0,7363;-0,4987;56,35222604;37,52204032;9,47000027;
19:47:13:826;2,3574;0,7363;-0,4987;56,35222604;37,52204032;9,47000027;
19:47:13:828;-3,7694;0,6672;-0,1154;56,35215120;37,52200269;8,89999962;
19:47:13:890;-3,7694;0,6672;-0,1154;56,35215120;37,52200269;8,89999962;
19:47:13:892;-3,7694;0,6672;-0,1154;56,35215120;37,52200269;8,89999962;
19:47:13:893;-3,7694;0,6672;-0,1154;56,35215120;37,52200269;8,89999962;
19:47:13:894;-3,7694;0,6672;-0,1154;56,35215120;37,52200269;8,89999962;
19:47:13:895;-3,7694;0,6672;-0,1154;56,35215120;37,52200269;8,89999962;
19:47:13:896;-3,7694;0,6672;-0,1154;56,35215120;37,52200269;8,89999962;
19:47:13:898;-3,7694;0,6672;-0,1154;56,35215120;37,52200269;8,89999962;
19:47:13:899;-4,5253;-0,2374;-0,5682;56,35215120;37,52200269;8,89999962;
19:47:13:948;-4,5253;-0,2374;-0,5682;56,35215120;37,52200269;8,89999962;
19:47:13:949;-0,9563;-0,4354;0,8523;56,35215120;37,52200269;8,89999962;
19:47:13:968;-0,9563;-0,4354;0,8523;56,35215120;37,52200269;8,89999962;
19:47:13:970;-0,9563;-0,4354;0,8523;56,35215120;37,52200269;8,89999962;
19:47:13:970;-0,9563;-0,4354;0,8523;56,35215120;37,52200269;8,89999962;
19:47:13:971;-0,9563;-0,4354;0,8523;56,35215120;37,52200269;8,89999962;
19:47:14:028;-0,9563;-0,4354;0,8523;56,35215120;37,52200269;8,89999962;
19:47:14:030;1,3235;-1,0194;1,1546;56,35215120;37,52200269;8,89999962;
19:47:14:036;1,3235;-1,0194;1,1546;56,35215120;37,52200269;8,89999962;
19:47:14:036;1,3235;-1,0194;1,1546;56,35215120;37,52200269;8,89999962;
19:47:14:037;1,3235;-1,0194;1,1546;56,35215120;37,52200269;8,89999962;
19:47:14:091;1,3235;-1,0194;1,1546;56,35215120;37,52200269;8,89999962;
19:47:14:094;-0,0221;-2,2121;1,1146;56,35215120;37,52200269;8,89999962;
19:47:14:114;-0,0221;-2,2121;1,1146;56,35215120;37,52200269;8,89999962;
19:47:14:116;-0,6834;-2,0967;1,0181;56,35215120;37,52200269;8,89999962;
19:47:14:117;-0,6834;-2,0967;1,0181;56,35215120;37,52200269;8,89999962;
19:47:14:118;-0,6834;-2,0967;1,0181;56,35215120;37,52200269;8,89999962;
19:47:14:118;-0,6834;-2,0967;1,0181;56,35215120;37,52200269;8,89999962;
19:47:14:119;-0,6834;-2,0967;1,0181;56,35215120;37,52200269;8,89999962;
19:47:14:171;-0,6834;-2,0967;1,0181;56,35215120;37,52200269;8,89999962;
19:47:14:173;-0,9226;-2,1609;2,1090;56,35215120;37,52200269;8,89999962;
19:47:14:195;-0,9226;-2,1609;2,1090;56,35215120;37,52200269;8,89999962;
19:47:14:197;-0,9226;-2,1609;2,1090;56,35215120;37,52200269;8,89999962;
19:47:14:200;-0,9226;-2,1609;2,1090;56,35215120;37,52200269;8,89999962;
19:47:14:202;-0,9226;-2,1609;2,1090;56,35215120;37,52200269;8,89999962;
19:47:14:251;-0,9226;-2,1609;2,1090;56,35215120;37,52200269;8,89999962;
19:47:14:254;-0,6526;-2,0437;0,6741;56,35215120;37,52200269;8,89999962;
19:47:14:256;-0,6526;-2,0437;0,6741;56,35215120;37,52200269;8,89999962;
19:47:14:257;-0,6526;-2,0437;0,6741;56,35215120;37,52200269;8,89999962;
19:47:14:259;-0,6526;-2,0437;0,6741;56,35215120;37,52200269;8,89999962;
19:47:14:291;-0,6526;-2,0437;0,6741;56,35215120;37,52200269;8,89999962;
19:47:14:294;-0,7925;-1,6141;0,5967;56,35215120;37,52200269;8,89999962;
19:47:14:332;-0,7925;-1,6141;0,5967;56,35215120;37,52200269;8,89999962;
19:47:14:335;-0,7925;-1,6141;0,5967;56,35215120;37,52200269;8,89999962;
19:47:14:336;-0,7925;-1,6141;0,5967;56,35215120;37,52200269;8,89999962;
19:47:14:338;-0,7925;-1,6141;0,5967;56,35215120;37,52200269;8,89999962;
19:47:14:392;-0,7925;-1,6141;0,5967;56,35215120;37,52200269;8,89999962;
19:47:14:395;-1,9616;-1,6407;2,6910;56,35215120;37,52200269;8,89999962;
19:47:14:409;-1,9616;-1,6407;2,6910;56,35215120;37,52200269;8,89999962;
19:47:14:411;-1,7348;-1,7758;2,6553;56,35215120;37,52200269;8,89999962;
19:47:14:413;-1,7348;-1,7758;2,6553;56,35215120;37,52200269;8,89999962;
19:47:14:415;-1,7348;-1,7758;2,6553;56,35215120;37,52200269;8,89999962;
19:47:14:417;-1,7348;-1,7758;2,6553;56,35215120;37,52200269;8,89999962;
19:47:14:418;-1,7348;-1,7758;2,6553;56,35215120;37,52200269;8,89999962;
19:47:14:462;-1,7348;-1,7758;2,6553;56,35215120;37,52200269;8,89999962;
19:47:14:465;0,9852;-0,6043;-0,8682;56,35215120;37,52200269;8,89999962;
19:47:14:470;0,9852;-0,6043;-0,8682;56,35215120;37,52200269;8,89999962;
19:47:14:472;0,9852;-0,6043;-0,8682;56,35215120;37,52200269;8,89999962;
19:47:14:474;0,9852;-0,6043;-0,8682;56,35215120;37,52200269;8,89999962;
19:47:14:525;1,3725;0,0467;-0,4725;56,35215120;37,52200269;8,89999962;
19:47:14:528;1,3725;0,0467;-0,4725;56,35215120;37,52200269;8,89999962;
19:47:14:548;1,3725;0,0467;-0,4725;56,35215120;37,52200269;8,89999962;
19:47:14:551;1,3725;0,0467;-0,4725;56,35215120;37,52200269;8,89999962;
19:47:14:553;1,3725;0,0467;-0,4725;56,35215120;37,52200269;8,89999962;
19:47:14:554;1,3725;0,0467;-0,4725;56,35215120;37,52200269;8,89999962;
19:47:14:602;1,3725;0,0467;-0,4725;56,35215120;37,52200269;8,89999962;
19:47:14:604;0,1288;-0,8165;-0,3380;56,35215120;37,52200269;8,89999962;
19:47:14:624;0,1288;-0,8165;-0,3380;56,35215120;37,52200269;8,89999962;
19:47:14:626;0,1288;-0,8165;-0,3380;56,35215120;37,52200269;8,89999962;
19:47:14:627;0,1288;-0,8165;-0,3380;56,35215120;37,52200269;8,89999962;
19:47:14:629;0,1288;-0,8165;-0,3380;56,35215120;37,52200269;8,89999962;
19:47:14:683;0,1288;-0,8165;-0,3380;56,35215120;37,52200269;8,89999962;
19:47:14:686;-0,3055;-0,6312;0,0678;56,35215120;37,52200269;8,89999962;
19:47:14:688;-0,3055;-0,6312;0,0678;56,35215120;37,52200269;8,89999962;
19:47:14:690;-0,3055;-0,6312;0,0678;56,35215120;37,52200269;8,89999962;
19:47:14:691;-0,3055;-0,6312;0,0678;56,35215120;37,52200269;8,89999962;
19:47:14:744;-0,3055;-0,6312;0,0678;56,35215120;37,52200269;8,89999962;
19:47:14:746;0,1595;-0,8124;-0,0782;56,35215120;37,52200269;8,89999962;
19:47:14:766;0,1595;-0,8124;-0,0782;56,35215120;37,52200269;8,89999962;
19:47:14:767;0,1595;-0,8124;-0,0782;56,35215120;37,52200269;8,89999962;
19:47:14:768;0,1595;-0,8124;-0,0782;56,35215120;37,52200269;8,89999962;
19:47:14:770;0,1595;-0,8124;-0,0782;56,35215120;37,52200269;8,89999962;
19:47:14:772;0,1595;-0,8124;-0,0782;56,35215120;37,52200269;8,89999962;
19:47:14:773;-0,0194;-0,5638;-0,0716;56,35215120;37,52200269;8,89999962;
19:47:14:840;-0,0194;-0,5638;-0,0716;56,35215120;37,52200269;8,89999962;
19:47:14:842;-0,0194;-0,5638;-0,0716;56,35209018;37,52193608;8,39999962;
19:47:14:844;-0,0194;-0,5638;-0,0716;56,35209018;37,52193608;8,39999962;
19:47:14:845;-0,0194;-0,5638;-0,0716;56,35209018;37,52193608;8,39999962;
19:47:14:846;-0,3312;-0,8301;0,4279;56,35209018;37,52193608;8,39999962;
19:47:14:895;-0,3312;-0,8301;0,4279;56,35209018;37,52193608;8,39999962;
19:47:14:897;0,1238;-0,9164;0,7085;56,35209018;37,52193608;8,39999962;
19:47:14:900;0,1238;-0,9164;0,7085;56,35209018;37,52193608;8,39999962;
19:47:14:901;0,1238;-0,9164;0,7085;56,35209018;37,52193608;8,39999962;
19:47:14:901;0,1238;-0,9164;0,7085;56,35209018;37,52193608;8,39999962;
19:47:14:954;0,1238;-0,9164;0,7085;56,35209018;37,52193608;8,39999962;
19:47:14:955;0,1723;-0,7424;0,2155;56,35209018;37,52193608;8,39999962;
19:47:14:979;0,1723;-0,7424;0,2155;56,35209018;37,52193608;8,39999962;
19:47:14:980;0,1723;-0,7424;0,2155;56,35209018;37,52193608;8,39999962;
19:47:14:981;0,1723;-0,7424;0,2155;56,35209018;37,52193608;8,39999962;
19:47:14:982;0,1723;-0,7424;0,2155;56,35209018;37,52193608;8,39999962;
19:47:15:035;0,1723;-0,7424;0,2155;56,35209018;37,52193608;8,39999962;
19:47:15:037;0,3237;-0,6967;0,3091;56,35209018;37,52193608;8,39999962;
19:47:15:058;0,3237;-0,6967;0,3091;56,35209018;37,52193608;8,39999962;
19:47:15:061;0,3237;-0,6967;0,3091;56,35209018;37,52193608;8,39999962;
19:47:15:063;0,3237;-0,6967;0,3091;56,35209018;37,52193608;8,39999962;
19:47:15:065;0,3237;-0,6967;0,3091;56,35209018;37,52193608;8,39999962;
19:47:15:071;0,3237;-0,6967;0,3091;56,35209018;37,52193608;8,39999962;
19:47:15:073;0,3279;-0,6225;0,3062;56,35209018;37,52193608;8,39999962;
19:47:15:117;0,3279;-0,6225;0,3062;56,35209018;37,52193608;8,39999962;
19:47:15:125;0,3279;-0,6225;0,3062;56,35209018;37,52193608;8,39999962;
19:47:15:128;0,2148;-0,4808;-0,1926;56,35209018;37,52193608;8,39999962;
19:47:15:187;0,2148;-0,4808;-0,1926;56,35209018;37,52193608;8,39999962;
19:47:15:190;-0,4863;-0,8908;0,6045;56,35209018;37,52193608;8,39999962;
19:47:15:193;-0,4863;-0,8908;0,6045;56,35209018;37,52193608;8,39999962;
19:47:15:195;-0,4863;-0,8908;0,6045;56,35209018;37,52193608;8,39999962;
19:47:15:196;-0,4863;-0,8908;0,6045;56,35209018;37,52193608;8,39999962;
19:47:15:198;-0,4863;-0,8908;0,6045;56,35209018;37,52193608;8,39999962;
19:47:15:200;-0,4863;-0,8908;0,6045;56,35209018;37,52193608;8,39999962;
19:47:15:201;-0,4863;-0,8908;0,6045;56,35209018;37,52193608;8,39999962;
19:47:15:247;-0,4863;-0,8908;0,6045;56,35209018;37,52193608;8,39999962;
19:47:15:249;0,0795;-1,0288;0,6241;56,35209018;37,52193608;8,39999962;
19:47:15:267;0,0795;-1,0288;0,6241;56,35209018;37,52193608;8,39999962;
19:47:15:271;0,0795;-1,0288;0,6241;56,35209018;37,52193608;8,39999962;
19:47:15:273;0,0795;-1,0288;0,6241;56,35209018;37,52193608;8,39999962;
19:47:15:275;0,0795;-1,0288;0,6241;56,35209018;37,52193608;8,39999962;
19:47:15:327;0,0795;-1,0288;0,6241;56,35209018;37,52193608;8,39999962;
19:47:15:330;0,1075;-1,1664;0,3615;56,35209018;37,52193608;8,39999962;
19:47:15:334;0,1075;-1,1664;0,3615;56,35209018;37,52193608;8,39999962;
19:47:15:336;0,1075;-1,1664;0,3615;56,35209018;37,52193608;8,39999962;
19:47:15:338;0,1075;-1,1664;0,3615;56,35209018;37,52193608;8,39999962;
19:47:15:388;0,1075;-1,1664;0,3615;56,35209018;37,52193608;8,39999962;
19:47:15:391;-0,0896;-1,0114;0,0787;56,35209018;37,52193608;8,39999962;
19:47:15:413;-0,0896;-1,0114;0,0787;56,35209018;37,52193608;8,39999962;
19:47:15:417;-0,0896;-1,0114;0,0787;56,35209018;37,52193608;8,39999962;
19:47:15:419;-0,0896;-1,0114;0,0787;56,35209018;37,52193608;8,39999962;
19:47:15:421;-0,0896;-1,0114;0,0787;56,35209018;37,52193608;8,39999962;
19:47:15:468;-0,0896;-1,0114;0,0787;56,35209018;37,52193608;8,39999962;
19:47:15:471;-0,0447;-0,9977;0,2246;56,35209018;37,52193608;8,39999962;
19:47:15:491;-0,0447;-0,9977;0,2246;56,35209018;37,52193608;8,39999962;
19:47:15:495;-0,0387;-0,9838;0,2206;56,35209018;37,52193608;8,39999962;
19:47:15:499;-0,0387;-0,9838;0,2206;56,35209018;37,52193608;8,39999962;
19:47:15:501;-0,0387;-0,9838;0,2206;56,35209018;37,52193608;8,39999962;
19:47:15:505;-0,0387;-0,9838;0,2206;56,35209018;37,52193608;8,39999962;
19:47:15:506;-0,0387;-0,9838;0,2206;56,35209018;37,52193608;8,39999962;
19:47:15:549;-0,0387;-0,9838;0,2206;56,35209018;37,52193608;8,39999962;
19:47:15:552;-0,1892;-0,8679;0,1719;56,35209018;37,52193608;8,39999962;
19:47:15:555;-0,1892;-0,8679;0,1719;56,35209018;37,52193608;8,39999962;
19:47:15:557;-0,1892;-0,8679;0,1719;56,35209018;37,52193608;8,39999962;
19:47:15:558;-0,1892;-0,8679;0,1719;56,35209018;37,52193608;8,39999962;
19:47:15:627;-0,1892;-0,8679;0,1719;56,35209018;37,52193608;8,39999962;
19:47:15:631;0,5274;-1,2727;0,3187;56,35209018;37,52193608;8,39999962;
19:47:15:633;0,5274;-1,2727;0,3187;56,35209018;37,52193608;8,39999962;
19:47:15:635;0,5274;-1,2727;0,3187;56,35209018;37,52193608;8,39999962;
19:47:15:637;0,5274;-1,2727;0,3187;56,35209018;37,52193608;8,39999962;
19:47:15:638;0,5274;-1,2727;0,3187;56,35209018;37,52193608;8,39999962;
19:47:15:689;0,5274;-1,2727;0,3187;56,35209018;37,52193608;8,39999962;
19:47:15:692;-0,1754;-0,9624;0,1673;56,35209018;37,52193608;8,39999962;
19:47:15:707;-0,1754;-0,9624;0,1673;56,35209018;37,52193608;8,39999962;
19:47:15:710;-0,1754;-0,9624;0,1673;56,35209018;37,52193608;8,39999962;
19:47:15:712;-0,1754;-0,9624;0,1673;56,35209018;37,52193608;8,39999962;
19:47:15:758;-0,1754;-0,9624;0,1673;56,35209018;37,52193608;8,39999962;
19:47:15:759;0,1499;-0,8214;-0,0688;56,35209018;37,52193608;8,39999962;
19:47:15:765;0,1499;-0,8214;-0,0688;56,35209018;37,52193608;8,39999962;
19:47:15:767;0,1499;-0,8214;-0,0688;56,35209018;37,52193608;8,39999962;
19:47:15:769;0,1499;-0,8214;-0,0688;56,35209018;37,52193608;8,39999962;
19:47:15:818;0,1499;-0,8214;-0,0688;56,35209018;37,52193608;8,39999962;
19:47:15:820;-0,3767;-0,7479;0,2033;56,35203485;37,52189744;7,15999985;
19:47:15:843;-0,3767;-0,7479;0,2033;56,35203485;37,52189744;7,15999985;
19:47:15:844;-0,3767;-0,7479;0,2033;56,35203485;37,52189744;7,15999985;
19:47:15:846;-0,3767;-0,7479;0,2033;56,35203485;37,52189744;7,15999985;
19:47:15:847;-0,3767;-0,7479;0,2033;56,35203485;37,52189744;7,15999985;
19:47:15:900;-0,3767;-0,7479;0,2033;56,35203485;37,52189744;7,15999985;
19:47:15:903;-0,0912;-0,9260;-0,0683;56,35203485;37,52189744;7,15999985;
19:47:15:924;-0,0912;-0,9260;-0,0683;56,35203485;37,52189744;7,15999985;
19:47:15:928;-0,5271;-0,7372;-0,0284;56,35203485;37,52189744;7,15999985;
19:47:15:931;-0,5271;-0,7372;-0,0284;56,35203485;37,52189744;7,15999985;
19:47:15:934;-0,5271;-0,7372;-0,0284;56,35203485;37,52189744;7,15999985;
19:47:15:935;-0,5271;-0,7372;-0,0284;56,35203485;37,52189744;7,15999985;
19:47:15:937;-0,5271;-0,7372;-0,0284;56,35203485;37,52189744;7,15999985;
19:47:15:979;-0,5271;-0,7372;-0,0284;56,35203485;37,52189744;7,15999985;
19:47:15:982;-0,5271;-0,7372;-0,0284;56,35203485;37,52189744;7,15999985;
19:47:15:984;-0,5271;-0,7372;-0,0284;56,35203485;37,52189744;7,15999985;
19:47:15:985;-0,5271;-0,7372;-0,0284;56,35203485;37,52189744;7,15999985;
19:47:15:987;0,0505;-0,1169;0,3123;56,35203485;37,52189744;7,15999985;
19:47:16:041;0,0505;-0,1169;0,3123;56,35203485;37,52189744;7,15999985;
19:47:16:044;0,0325;-1,5157;0,4058;56,35203485;37,52189744;7,15999985;
19:47:16:061;0,0325;-1,5157;0,4058;56,35203485;37,52189744;7,15999985;
19:47:16:064;0,0325;-1,5157;0,4058;56,35203485;37,52189744;7,15999985;
19:47:16:067;0,0325;-1,5157;0,4058;56,35203485;37,52189744;7,15999985;
19:47:16:068;0,0325;-1,5157;0,4058;56,35203485;37,52189744;7,15999985;
19:47:16:105;0,0325;-1,5157;0,4058;56,35203485;37,52189744;7,15999985;
19:47:16:107;-0,0559;-0,7294;0,2057;56,35203485;37,52189744;7,15999985;
19:47:16:139;-0,0559;-0,7294;0,2057;56,35203485;37,52189744;7,15999985;
19:47:16:141;-0,0559;-0,7294;0,2057;56,35203485;37,52189744;7,15999985;
19:47:16:143;-0,0559;-0,7294;0,2057;56,35203485;37,52189744;7,15999985;
19:47:16:145;-0,0559;-0,7294;0,2057;56,35203485;37,52189744;7,15999985;
19:47:16:191;-0,0559;-0,7294;0,2057;56,35203485;37,52189744;7,15999985;
19:47:16:194;-0,0325;-0,7857;0,1530;56,35203485;37,52189744;7,15999985;
19:47:16:199;-0,0325;-0,7857;0,1530;56,35203485;37,52189744;7,15999985;
19:47:16:201;-0,0325;-0,7857;0,1530;56,35203485;37,52189744;7,15999985;
19:47:16:203;-0,0325;-0,7857;0,1530;56,35203485;37,52189744;7,15999985;
19:47:16:252;-0,0325;-0,7857;0,1530;56,35203485;37,52189744;7,15999985;
19:47:16:254;-0,0565;-0,7633;0,1238;56,35203485;37,52189744;7,15999985;
19:47:16:276;-0,0565;-0,7633;0,1238;56,35203485;37,52189744;7,15999985;
19:47:16:279;-0,0565;-0,7633;0,1238;56,35203485;37,52189744;7,15999985;
19:47:16:283;-0,0565;-0,7633;0,1238;56,35203485;37,52189744;7,15999985;
19:47:16:284;-0,0565;-0,7633;0,1238;56,35203485;37,52189744;7,15999985;
19:47:16:286;-0,0565;-0,7633;0,1238;56,35203485;37,52189744;7,15999985;
19:47:16:288;-0,0714;-0,7515;0,1230;56,35203485;37,52189744;7,15999985;
19:47:16:332;-0,0714;-0,7515;0,1230;56,35203485;37,52189744;7,15999985;
19:47:16:335;-0,0652;-0,5830;0,1917;56,35203485;37,52189744;7,15999985;
19:47:16:355;-0,0652;-0,5830;0,1917;56,35203485;37,52189744;7,15999985;
19:47:16:358;-0,0652;-0,5830;0,1917;56,35203485;37,52189744;7,15999985;
19:47:16:360;-0,0652;-0,5830;0,1917;56,35203485;37,52189744;7,15999985;
19:47:16:363;-0,0652;-0,5830;0,1917;56,35203485;37,52189744;7,15999985;
19:47:16:421;-0,0652;-0,5830;0,1917;56,35203485;37,52189744;7,15999985;
19:47:16:424;-0,0652;-0,5830;0,1917;56,35203485;37,52189744;7,15999985;
19:47:16:425;-0,0652;-0,5830;0,1917;56,35203485;37,52189744;7,15999985;
19:47:16:427;-0,0652;-0,5830;0,1917;56,35203485;37,52189744;7,15999985;
19:47:16:428;-0,0101;-0,4225;0,1172;56,35203485;37,52189744;7,15999985;
19:47:16:483;-0,0101;-0,4225;0,1172;56,35203485;37,52189744;7,15999985;
19:47:16:485;0,1071;-0,1541;0,1087;56,35203485;37,52189744;7,15999985;
19:47:16:506;0,1071;-0,1541;0,1087;56,35203485;37,52189744;7,15999985;
19:47:16:508;0,1071;-0,1541;0,1087;56,35203485;37,52189744;7,15999985;
19:47:16:512;0,1071;-0,1541;0,1087;56,35203485;37,52189744;7,15999985;
19:47:16:514;0,1071;-0,1541;0,1087;56,35203485;37,52189744;7,15999985;
19:47:16:554;0,1071;-0,1541;0,1087;56,35203485;37,52189744;7,15999985;
19:47:16:556;-0,0346;0,1427;0,0277;56,35203485;37,52189744;7,15999985;
19:47:16:578;-0,0346;0,1427;0,0277;56,35203485;37,52189744;7,15999985;
19:47:16:581;-0,0346;0,1427;0,0277;56,35203485;37,52189744;7,15999985;
19:47:16:584;-0,0346;0,1427;0,0277;56,35203485;37,52189744;7,15999985;
19:47:16:585;-0,0346;0,1427;0,0277;56,35203485;37,52189744;7,15999985;
19:47:16:587;-0,0346;0,1427;0,0277;56,35203485;37,52189744;7,15999985;
19:47:16:588;-0,0660;0,1453;0,0301;56,35203485;37,52189744;7,15999985;
19:47:16:630;-0,0660;0,1453;0,0301;56,35203485;37,52189744;7,15999985;
19:47:16:631;-0,0660;0,1453;0,0301;56,35203485;37,52189744;7,15999985;
19:47:16:684;-0,0660;0,1453;0,0301;56,35203485;37,52189744;7,15999985;
19:47:16:687;0,0687;0,4584;0,1536;56,35203485;37,52189744;7,15999985;
19:47:16:708;0,0687;0,4584;0,1536;56,35203485;37,52189744;7,15999985;
19:47:16:712;0,0867;0,4360;0,1480;56,35203485;37,52189744;7,15999985;
19:47:16:715;0,0867;0,4360;0,1480;56,35203485;37,52189744;7,15999985;
19:47:16:717;0,0867;0,4360;0,1480;56,35203485;37,52189744;7,15999985;
19:47:16:719;0,0867;0,4360;0,1480;56,35203485;37,52189744;7,15999985;
19:47:16:720;0,0867;0,4360;0,1480;56,35203485;37,52189744;7,15999985;
19:47:16:765;0,0867;0,4360;0,1480;56,35203485;37,52189744;7,15999985;
19:47:16:767;-0,0393;0,5191;0,0308;56,35203485;37,52189744;7,15999985;
19:47:16:786;-0,0393;0,5191;0,0308;56,35203485;37,52189744;7,15999985;
19:47:16:788;-0,0393;0,5191;0,0308;56,35198825;37,52186398;5,88999987;
19:47:16:789;-0,0393;0,5191;0,0308;56,35198825;37,52186398;5,88999987;
19:47:16:791;-0,0393;0,5191;0,0308;56,35198825;37,52186398;5,88999987;
19:47:16:843;-0,0393;0,5191;0,0308;56,35198825;37,52186398;5,88999987;
19:47:16:845;0,0230;0,4810;-0,0242;56,35198825;37,52186398;5,88999987;
19:47:16:846;0,0230;0,4810;-0,0242;56,35198825;37,52186398;5,88999987;
19:47:16:847;0,0230;0,4810;-0,0242;56,35198825;37,52186398;5,88999987;
19:47:16:849;0,0230;0,4810;-0,0242;56,35198825;37,52186398;5,88999987;
19:47:16:890;0,0230;0,4810;-0,0242;56,35198825;37,52186398;5,88999987;
19:47:16:893;0,0197;0,4311;-0,0211;56,35198825;37,52186398;5,88999987;
19:47:16:925;0,0197;0,4311;-0,0211;56,35198825;37,52186398;5,88999987;
19:47:16:928;0,0197;0,4311;-0,0211;56,35198825;37,52186398;5,88999987;
19:47:16:929;0,0197;0,4311;-0,0211;56,35198825;37,52186398;5,88999987;
19:47:16:931;0,0197;0,4311;-0,0211;56,35198825;37,52186398;5,88999987;
19:47:16:986;0,0197;0,4311;-0,0211;56,35198825;37,52186398;5,88999987;
19:47:16:988;-0,0532;0,3940;0,0380;56,35198825;37,52186398;5,88999987;
19:47:17:006;-0,0499;0,3513;0,0340;56,35198825;37,52186398;5,88999987;
19:47:17:009;-0,0499;0,3513;0,0340;56,35198825;37,52186398;5,88999987;
19:47:17:013;-0,0499;0,3513;0,0340;56,35198825;37,52186398;5,88999987;
19:47:17:015;-0,0499;0,3513;0,0340;56,35198825;37,52186398;5,88999987;
19:47:17:018;-0,0499;0,3513;0,0340;56,35198825;37,52186398;5,88999987;
19:47:17:020;-0,0499;0,3513;0,0340;56,35198825;37,52186398;5,88999987;
19:47:17:055;-0,0499;0,3513;0,0340;56,35198825;37,52186398;5,88999987;
19:47:17:057;-0,0597;0,2801;0,1336;56,35198825;37,52186398;5,88999987;
19:47:17:064;-0,0597;0,2801;0,1336;56,35198825;37,52186398;5,88999987;
19:47:17:067;-0,0597;0,2801;0,1336;56,35198825;37,52186398;5,88999987;
19:47:17:070;-0,0597;0,2801;0,1336;56,35198825;37,52186398;5,88999987;
19:47:17:115;-0,0597;0,2801;0,1336;56,35198825;37,52186398;5,88999987;
19:47:17:117;0,0765;0,2894;0,0945;56,35198825;37,52186398;5,88999987;
19:47:17:141;0,0765;0,2894;0,0945;56,35198825;37,52186398;5,88999987;
19:47:17:144;0,0765;0,2894;0,0945;56,35198825;37,52186398;5,88999987;
19:47:17:146;0,0765;0,2894;0,0945;56,35198825;37,52186398;5,88999987;
19:47:17:148;0,0765;0,2894;0,0945;56,35198825;37,52186398;5,88999987;
19:47:17:204;0,0765;0,2894;0,0945;56,35198825;37,52186398;5,88999987;
19:47:17:206;0,0566;0,2022;0,0336;56,35198825;37,52186398;5,88999987;
19:47:17:221;0,0566;0,2022;0,0336;56,35198825;37,52186398;5,88999987;
19:47:17:223;0,0566;0,2022;0,0336;56,35198825;37,52186398;5,88999987;
19:47:17:224;0,0566;0,2022;0,0336;56,35198825;37,52186398;5,88999987;
19:47:17:225;0,0566;0,2022;0,0336;56,35198825;37,52186398;5,88999987;
19:47:17:277;0,0566;0,2022;0,0336;56,35198825;37,52186398;5,88999987;
19:47:17:281;0,0415;0,2289;-0,0928;56,35198825;37,52186398;5,88999987;
19:47:17:284;0,0415;0,2289;-0,0928;56,35198825;37,52186398;5,88999987;
19:47:17:285;0,0415;0,2289;-0,0928;56,35198825;37,52186398;5,88999987;
19:47:17:287;0,0415;0,2289;-0,0928;56,35198825;37,52186398;5,88999987;
19:47:17:337;0,0415;0,2289;-0,0928;56,35198825;37,52186398;5,88999987;
19:47:17:339;-0,0861;0,2184;0,1089;56,35198825;37,52186398;5,88999987;
19:47:17:357;-0,0861;0,2184;0,1089;56,35198825;37,52186398;5,88999987;
19:47:17:361;-0,0673;0,1898;0,0959;56,35198825;37,52186398;5,88999987;
19:47:17:364;-0,0673;0,1898;0,0959;56,35198825;37,52186398;5,88999987;
19:47:17:367;-0,0673;0,1898;0,0959;56,35198825;37,52186398;5,88999987;
19:47:17:370;-0,0673;0,1898;0,0959;56,35198825;37,52186398;5,88999987;
19:47:17:372;-0,0673;0,1898;0,0959;56,35198825;37,52186398;5,88999987;
19:47:17:436;-0,0673;0,1898;0,0959;56,35198825;37,52186398;5,88999987;
19:47:17:439;-0,1599;0,1057;0,1230;56,35198825;37,52186398;5,88999987;
19:47:17:441;-0,1599;0,1057;0,1230;56,35198825;37,52186398;5,88999987;
19:47:17:443;-0,1599;0,1057;0,1230;56,35198825;37,52186398;5,88999987;
19:47:17:445;-0,1599;0,1057;0,1230;56,35198825;37,52186398;5,88999987;
19:47:17:487;-0,1599;0,1057;0,1230;56,35198825;37,52186398;5,88999987;
19:47:17:489;0,0406;0,1213;0,1948;56,35198825;37,52186398;5,88999987;
19:47:17:494;0,0406;0,1213;0,1948;56,35198825;37,52186398;5,88999987;
19:47:17:495;0,0406;0,1213;0,1948;56,35198825;37,52186398;5,88999987;
19:47:17:496;0,0406;0,1213;0,1948;56,35198825;37,52186398;5,88999987;
19:47:17:549;0,0406;0,1213;0,1948;56,35198825;37,52186398;5,88999987;
19:47:17:551;-0,0909;0,1736;0,0759;56,35198825;37,52186398;5,88999987;
19:47:17:574;-0,0909;0,1736;0,0759;56,35198825;37,52186398;5,88999987;
19:47:17:577;-0,0909;0,1736;0,0759;56,35198825;37,52186398;5,88999987;
19:47:17:580;-0,0909;0,1736;0,0759;56,35198825;37,52186398;5,88999987;
19:47:17:582;-0,0909;0,1736;0,0759;56,35198825;37,52186398;5,88999987;
19:47:17:629;-0,0909;0,1736;0,0759;56,35198825;37,52186398;5,88999987;
19:47:17:632;0,0377;0,1201;-0,0323;56,35198825;37,52186398;5,88999987;
19:47:17:653;0,0377;0,1201;-0,0323;56,35198825;37,52186398;5,88999987;
19:47:17:656;0,0377;0,1201;-0,0323;56,35198825;37,52186398;5,88999987;
19:47:17:658;0,0377;0,1201;-0,0323;56,35198825;37,52186398;5,88999987;
19:47:17:660;0,0377;0,1201;-0,0323;56,35198825;37,52186398;5,88999987;
19:47:17:675;0,0377;0,1201;-0,0323;56,35198825;37,52186398;5,88999987;
19:47:17:678;0,0332;0,1196;-0,0314;56,35198825;37,52186398;5,88999987;
19:47:17:713;0,0332;0,1196;-0,0314;56,35198825;37,52186398;5,88999987;
19:47:17:771;0,0332;0,1196;-0,0314;56,35198825;37,52186398;5,88999987;
19:47:17:778;0,0125;0,1207;0,0439;56,35198825;37,52186398;5,88999987;
19:47:17:792;0,0066;0,1078;0,0394;56,35198825;37,52186398;5,88999987;
19:47:17:795;0,0066;0,1078;0,0394;56,35198825;37,52186398;5,88999987;
19:47:17:797;0,0066;0,1078;0,0394;56,35198825;37,52186398;5,88999987;
19:47:17:798;0,0066;0,1078;0,0394;56,35198825;37,52186398;5,88999987;
19:47:17:799;0,0066;0,1078;0,0394;56,35198825;37,52186398;5,88999987;
19:47:17:800;0,0066;0,1078;0,0394;56,35198825;37,52186398;5,88999987;
19:47:17:801;0,0066;0,1078;0,0394;56,35198825;37,52186398;5,88999987;
19:47:17:803;0,0066;0,1078;0,0394;56,35198825;37,52186398;5,88999987;
19:47:17:850;0,0227;0,0527;0,1317;56,35198825;37,52186398;5,88999987;
19:47:17:852;0,0227;0,0527;0,1317;56,35193724;37,52183209;5,28000021;
19:47:17:867;0,0227;0,0527;0,1317;56,35193724;37,52183209;5,28000021;
19:47:17:868;0,0227;0,0527;0,1317;56,35193724;37,52183209;5,28000021;
19:47:17:870;0,0227;0,0527;0,1317;56,35193724;37,52183209;5,28000021;
19:47:17:872;0,0227;0,0527;0,1317;56,35193724;37,52183209;5,28000021;
19:47:17:919;0,0227;0,0527;0,1317;56,35193724;37,52183209;5,28000021;
19:47:17:921;-0,0646;0,1171;-0,0246;56,35193724;37,52183209;5,28000021;
19:47:17:926;-0,0646;0,1171;-0,0246;56,35193724;37,52183209;5,28000021;
19:47:17:928;-0,0646;0,1171;-0,0246;56,35193724;37,52183209;5,28000021;
19:47:17:929;-0,0646;0,1171;-0,0246;56,35193724;37,52183209;5,28000021;
19:47:17:980;-0,0646;0,1171;-0,0246;56,35193724;37,52183209;5,28000021;
19:47:17:983;-0,0437;0,0661;-0,1019;56,35193724;37,52183209;5,28000021;
19:47:18:005;-0,0437;0,0661;-0,1019;56,35193724;37,52183209;5,28000021;
19:47:18:007;-0,0437;0,0661;-0,1019;56,35193724;37,52183209;5,28000021;
19:47:18:009;-0,0437;0,0661;-0,1019;56,35193724;37,52183209;5,28000021;
19:47:18:012;-0,0437;0,0661;-0,1019;56,35193724;37,52183209;5,28000021;
19:47:18:062;-0,0437;0,0661;-0,1019;56,35193724;37,52183209;5,28000021;
19:47:18:064;0,0683;0,0820;-0,0167;56,35193724;37,52183209;5,28000021;
19:47:18:084;0,0626;0,0752;-0,0148;56,35193724;37,52183209;5,28000021;
19:47:18:088;0,0626;0,0752;-0,0148;56,35193724;37,52183209;5,28000021;
19:47:18:092;0,0626;0,0752;-0,0148;56,35193724;37,52183209;5,28000021;
19:47:18:094;0,0626;0,0752;-0,0148;56,35193724;37,52183209;5,28000021;
19:47:18:096;0,0626;0,0752;-0,0148;56,35193724;37,52183209;5,28000021;
19:47:18:098;0,0626;0,0752;-0,0148;56,35193724;37,52183209;5,28000021;
19:47:18:143;0,0626;0,0752;-0,0148;56,35193724;37,52183209;5,28000021;
19:47:18:146;-0,0771;0,0299;-0,0576;56,35193724;37,52183209;5,28000021;
19:47:18:149;-0,0771;0,0299;-0,0576;56,35193724;37,52183209;5,28000021;
19:47:18:151;-0,0771;0,0299;-0,0576;56,35193724;37,52183209;5,28000021;
19:47:18:152;-0,0771;0,0299;-0,0576;56,35193724;37,52183209;5,28000021;
19:47:18:222;-0,0771;0,0299;-0,0576;56,35193724;37,52183209;5,28000021;
19:47:18:225;0,0873;0,0284;0,1947;56,35193724;37,52183209;5,28000021;
19:47:18:229;0,0873;0,0284;0,1947;56,35193724;37,52183209;5,28000021;
19:47:18:231;0,0873;0,0284;0,1947;56,35193724;37,52183209;5,28000021;
19:47:18:233;0,0873;0,0284;0,1947;56,35193724;37,52183209;5,28000021;
19:47:18:235;0,0873;0,0284;0,1947;56,35193724;37,52183209;5,28000021;
19:47:18:283;0,0873;0,0284;0,1947;56,35193724;37,52183209;5,28000021;
19:47:18:286;-0,0115;0,0516;-0,0939;56,35193724;37,52183209;5,28000021;
19:47:18:304;-0,0115;0,0516;-0,0939;56,35193724;37,52183209;5,28000021;
19:47:18:307;-0,0115;0,0516;-0,0939;56,35193724;37,52183209;5,28000021;
19:47:18:310;-0,0115;0,0516;-0,0939;56,35193724;37,52183209;5,28000021;
19:47:18:353;-0,0115;0,0516;-0,0939;56,35193724;37,52183209;5,28000021;
19:47:18:356;-0,0690;0,1010;-0,0576;56,35193724;37,52183209;5,28000021;
19:47:18:362;-0,0690;0,1010;-0,0576;56,35193724;37,52183209;5,28000021;
19:47:18:364;-0,0690;0,1010;-0,0576;56,35193724;37,52183209;5,28000021;
19:47:18:365;-0,0690;0,1010;-0,0576;56,35193724;37,52183209;5,28000021;
19:47:18:412;-0,0690;0,1010;-0,0576;56,35193724;37,52183209;5,28000021;
19:47:18:416;0,0062;0,0195;0,1003;56,35193724;37,52183209;5,28000021;
19:47:18:440;0,0062;0,0195;0,1003;56,35193724;37,52183209;5,28000021;
19:47:18:443;0,0062;0,0195;0,1003;56,35193724;37,52183209;5,28000021;
19:47:18:445;0,0062;0,0195;0,1003;56,35193724;37,52183209;5,28000021;
19:47:18:447;0,0062;0,0195;0,1003;56,35193724;37,52183209;5,28000021;
19:47:18:450;0,0062;0,0195;0,1003;56,35193724;37,52183209;5,28000021;
19:47:18:452;0,0034;0,0228;0,0990;56,35193724;37,52183209;5,28000021;
19:47:18:504;0,0034;0,0228;0,0990;56,35193724;37,52183209;5,28000021;
19:47:18:507;0,0527;0,0212;0,1934;56,35193724;37,52183209;5,28000021;
19:47:18:509;0,0527;0,0212;0,1934;56,35193724;37,52183209;5,28000021;
19:47:18:511;0,0527;0,0212;0,1934;56,35193724;37,52183209;5,28000021;
19:47:18:513;0,0527;0,0212;0,1934;56,35193724;37,52183209;5,28000021;
19:47:18:515;0,0527;0,0212;0,1934;56,35193724;37,52183209;5,28000021;
19:47:18:563;0,0527;0,0212;0,1934;56,35193724;37,52183209;5,28000021;
19:47:18:565;-0,0116;0,0043;0,0745;56,35193724;37,52183209;5,28000021;
19:47:18:575;-0,0116;0,0043;0,0745;56,35193724;37,52183209;5,28000021;
19:47:18:578;-0,0116;0,0043;0,0745;56,35193724;37,52183209;5,28000021;
19:47:18:580;-0,0116;0,0043;0,0745;56,35193724;37,52183209;5,28000021;
19:47:18:624;-0,0116;0,0043;0,0745;56,35193724;37,52183209;5,28000021;
19:47:18:627;-0,0749;0,0527;0,0438;56,35193724;37,52183209;5,28000021;
19:47:18:653;-0,0749;0,0527;0,0438;56,35193724;37,52183209;5,28000021;
19:47:18:656;-0,0749;0,0527;0,0438;56,35193724;37,52183209;5,28000021;
19:47:18:658;-0,0749;0,0527;0,0438;56,35193724;37,52183209;5,28000021;
19:47:18:660;-0,0749;0,0527;0,0438;56,35193724;37,52183209;5,28000021;
19:47:18:712;-0,0749;0,0527;0,0438;56,35193724;37,52183209;5,28000021;
19:47:18:715;-0,0689;0,0236;-0,0100;56,35193724;37,52183209;5,28000021;
19:47:18:738;-0,0689;0,0236;-0,0100;56,35193724;37,52183209;5,28000021;
19:47:18:740;-0,0689;0,0236;-0,0100;56,35193724;37,52183209;5,28000021;
19:47:18:742;-0,0689;0,0236;-0,0100;56,35193724;37,52183209;5,28000021;
19:47:18:744;-0,0689;0,0236;-0,0100;56,35193724;37,52183209;5,28000021;
19:47:18:786;-0,0689;0,0236;-0,0100;56,35193724;37,52183209;5,28000021;
19:47:18:788;0,0295;0,0801;0,0438;56,35189709;37,52181968;4,94999981;
19:47:18:791;0,0295;0,0801;0,0438;56,35189709;37,52181968;4,94999981;
19:47:18:792;0,0295;0,0801;0,0438;56,35189709;37,52181968;4,94999981;
19:47:18:793;0,0295;0,0801;0,0438;56,35189709;37,52181968;4,94999981;
19:47:18:844;0,0295;0,0801;0,0438;56,35189709;37,52181968;4,94999981;
19:47:18:846;0,0161;0,0160;-0,1870;56,35189709;37,52181968;4,94999981;
19:47:18:868;0,0161;0,0160;-0,1870;56,35189709;37,52181968;4,94999981;
19:47:18:870;0,0131;0,0188;-0,1659;56,35189709;37,52181968;4,94999981;
19:47:18:872;0,0131;0,0188;-0,1659;56,35189709;37,52181968;4,94999981;
19:47:18:874;0,0131;0,0188;-0,1659;56,35189709;37,52181968;4,94999981;
19:47:18:875;0,0131;0,0188;-0,1659;56,35189709;37,52181968;4,94999981;
19:47:18:876;0,0131;0,0188;-0,1659;56,35189709;37,52181968;4,94999981;
19:47:18:925;0,0131;0,0188;-0,1659;56,35189709;37,52181968;4,94999981;
19:47:18:927;0,1367;0,0034;0,1343;56,35189709;37,52181968;4,94999981;
19:47:18:948;0,1367;0,0034;0,1343;56,35189709;37,52181968;4,94999981;
19:47:18:951;0,1367;0,0034;0,1343;56,35189709;37,52181968;4,94999981;
19:47:18:953;0,1367;0,0034;0,1343;56,35189709;37,52181968;4,94999981;
19:47:18:956;0,1367;0,0034;0,1343;56,35189709;37,52181968;4,94999981;
19:47:19:009;0,1367;0,0034;0,1343;56,35189709;37,52181968;4,94999981;
19:47:19:026;0,1367;0,0034;0,1343;56,35189709;37,52181968;4,94999981;
19:47:19:030;-0,0123;0,0382;0,0517;56,35189709;37,52181968;4,94999981;
19:47:19:088;-0,0123;0,0382;0,0517;56,35189709;37,52181968;4,94999981;
19:47:19:092;-0,0123;0,0382;0,0517;56,35189709;37,52181968;4,94999981;
19:47:19:094;-0,0123;0,0382;0,0517;56,35189709;37,52181968;4,94999981;
19:47:19:096;-0,0123;0,0382;0,0517;56,35189709;37,52181968;4,94999981;
19:47:19:098;-0,0123;0,0382;0,0517;56,35189709;37,52181968;4,94999981;
19:47:19:099;-0,0123;0,0382;0,0517;56,35189709;37,52181968;4,94999981;
19:47:19:102;-0,0123;0,0382;0,0517;56,35189709;37,52181968;4,94999981;
19:47:19:104;0,0481;-0,0236;0,1723;56,35189709;37,52181968;4,94999981;
19:47:19:147;0,0481;-0,0236;0,1723;56,35189709;37,52181968;4,94999981;
19:47:19:150;-0,0604;0,0224;0,1276;56,35189709;37,52181968;4,94999981;
19:47:19:171;-0,0604;0,0224;0,1276;56,35189709;37,52181968;4,94999981;
19:47:19:174;-0,0604;0,0224;0,1276;56,35189709;37,52181968;4,94999981;
19:47:19:175;-0,0604;0,0224;0,1276;56,35189709;37,52181968;4,94999981;
19:47:19:216;-0,0604;0,0224;0,1276;56,35189709;37,52181968;4,94999981;
19:47:19:218;-0,0480;0,0132;-0,0333;56,35189709;37,52181968;4,94999981;
19:47:19:223;-0,0480;0,0132;-0,0333;56,35189709;37,52181968;4,94999981;
19:47:19:225;-0,0480;0,0132;-0,0333;56,35189709;37,52181968;4,94999981;
19:47:19:227;-0,0480;0,0132;-0,0333;56,35189709;37,52181968;4,94999981;
19:47:19:234;-0,0480;0,0132;-0,0333;56,35189709;37,52181968;4,94999981;
19:47:19:238;-0,0531;0,0163;-0,0287;56,35189709;37,52181968;4,94999981;
19:47:19:288;-0,0531;0,0163;-0,0287;56,35189709;37,52181968;4,94999981;
19:47:19:290;-0,0492;-0,0028;-0,0319;56,35189709;37,52181968;4,94999981;
19:47:19:307;-0,0492;-0,0028;-0,0319;56,35189709;37,52181968;4,94999981;
19:47:19:310;-0,0492;-0,0028;-0,0319;56,35189709;37,52181968;4,94999981;
19:47:19:312;-0,0492;-0,0028;-0,0319;56,35189709;37,52181968;4,94999981;
19:47:19:315;-0,0492;-0,0028;-0,0319;56,35189709;37,52181968;4,94999981;
19:47:19:358;-0,0492;-0,0028;-0,0319;56,35189709;37,52181968;4,94999981;
19:47:19:362;0,0574;0,0168;-0,0966;56,35189709;37,52181968;4,94999981;
19:47:19:380;0,0574;0,0168;-0,0966;56,35189709;37,52181968;4,94999981;
19:47:19:384;0,0574;0,0168;-0,0966;56,35189709;37,52181968;4,94999981;
19:47:19:386;0,0574;0,0168;-0,0966;56,35189709;37,52181968;4,94999981;
19:47:19:387;0,0574;0,0168;-0,0966;56,35189709;37,52181968;4,94999981;
19:47:19:437;0,0574;0,0168;-0,0966;56,35189709;37,52181968;4,94999981;
19:47:19:442;0,0544;0,0364;-0,0178;56,35189709;37,52181968;4,94999981;
19:47:19:444;0,0544;0,0364;-0,0178;56,35189709;37,52181968;4,94999981;
19:47:19:446;0,0544;0,0364;-0,0178;56,35189709;37,52181968;4,94999981;
19:47:19:448;0,0544;0,0364;-0,0178;56,35189709;37,52181968;4,94999981;
19:47:19:497;0,0544;0,0364;-0,0178;56,35189709;37,52181968;4,94999981;
19:47:19:499;0,0767;0,0065;0,0601;56,35189709;37,52181968;4,94999981;
19:47:19:518;0,0767;0,0065;0,0601;56,35189709;37,52181968;4,94999981;
19:47:19:520;0,0767;0,0065;0,0601;56,35189709;37,52181968;4,94999981;
19:47:19:523;0,0767;0,0065;0,0601;56,35189709;37,52181968;4,94999981;
19:47:19:525;0,0767;0,0065;0,0601;56,35189709;37,52181968;4,94999981;
19:47:19:578;0,0767;0,0065;0,0601;56,35189709;37,52181968;4,94999981;
19:47:19:581;0,0704;-0,0129;0,1634;56,35189709;37,52181968;4,94999981;
19:47:19:595;0,0704;-0,0129;0,1634;56,35189709;37,52181968;4,94999981;
19:47:19:597;0,0704;-0,0129;0,1634;56,35189709;37,52181968;4,94999981;
19:47:19:599;0,0704;-0,0129;0,1634;56,35189709;37,52181968;4,94999981;
19:47:19:601;0,0704;-0,0129;0,1634;56,35189709;37,52181968;4,94999981;
19:47:19:603;0,0704;-0,0129;0,1634;56,35189709;37,52181968;4,94999981;
19:47:19:604;0,0765;-0,0178;0,1439;56,35189709;37,52181968;4,94999981;
19:47:19:649;0,0765;-0,0178;0,1439;56,35189709;37,52181968;4,94999981;
19:47:19:653;-0,0530;0,0181;0,0964;56,35189709;37,52181968;4,94999981;
19:47:19:658;-0,0530;0,0181;0,0964;56,35189709;37,52181968;4,94999981;
19:47:19:660;-0,0530;0,0181;0,0964;56,35189709;37,52181968;4,94999981;
19:47:19:662;-0,0530;0,0181;0,0964;56,35189709;37,52181968;4,94999981;
19:47:19:710;-0,0530;0,0181;0,0964;56,35189709;37,52181968;4,94999981;
19:47:19:713;-0,0219;0,0272;-0,0771;56,35189709;37,52181968;4,94999981;
19:47:19:741;-0,0219;0,0272;-0,0771;56,35189709;37,52181968;4,94999981;
19:47:19:744;-0,0219;0,0272;-0,0771;56,35189709;37,52181968;4,94999981;
19:47:19:748;-0,0219;0,0272;-0,0771;56,35189709;37,52181968;4,94999981;
19:47:19:751;-0,0219;0,0272;-0,0771;56,35189709;37,52181968;4,94999981;
19:47:19:811;-0,0219;0,0272;-0,0771;56,35189709;37,52181968;4,94999981;
19:47:19:812;-0,1112;-0,0212;0,1213;56,35185680;37,52180182;4,59000015;
19:47:19:814;-0,1112;-0,0212;0,1213;56,35185680;37,52180182;4,59000015;
19:47:19:815;-0,1112;-0,0212;0,1213;56,35185680;37,52180182;4,59000015;
19:47:19:816;-0,1112;-0,0212;0,1213;56,35185680;37,52180182;4,59000015;
19:47:19:817;-0,1112;-0,0212;0,1213;56,35185680;37,52180182;4,59000015;
19:47:19:871;-0,1112;-0,0212;0,1213;56,35185680;37,52180182;4,59000015;
19:47:19:872;-0,1112;-0,0212;0,1213;56,35185680;37,52180182;4,59000015;
19:47:19:873;-0,1112;-0,0212;0,1213;56,35185680;37,52180182;4,59000015;
19:47:19:875;-0,1112;-0,0212;0,1213;56,35185680;37,52180182;4,59000015;
19:47:19:876;-0,0163;-0,0038;0,0323;56,35185680;37,52180182;4,59000015;
19:47:19:931;-0,0163;-0,0038;0,0323;56,35185680;37,52180182;4,59000015;
19:47:19:934;0,0603;-0,0033;0,0416;56,35185680;37,52180182;4,59000015;
19:47:19:950;0,0603;-0,0033;0,0416;56,35185680;37,52180182;4,59000015;
19:47:19:953;0,0496;-0,0075;0,0370;56,35185680;37,52180182;4,59000015;
19:47:19:957;0,0496;-0,0075;0,0370;56,35185680;37,52180182;4,59000015;
19:47:19:960;0,0496;-0,0075;0,0370;56,35185680;37,52180182;4,59000015;
19:47:19:963;0,0496;-0,0075;0,0370;56,35185680;37,52180182;4,59000015;
19:47:19:966;0,0496;-0,0075;0,0370;56,35185680;37,52180182;4,59000015;
19:47:20:011;0,0496;-0,0075;0,0370;56,35185680;37,52180182;4,59000015;
19:47:20:014;0,0282;-0,0023;-0,1636;56,35185680;37,52180182;4,59000015;
19:47:20:028;0,0282;-0,0023;-0,1636;56,35185680;37,52180182;4,59000015;
19:47:20:030;0,0282;-0,0023;-0,1636;56,35185680;37,52180182;4,59000015;
19:47:20:032;0,0282;-0,0023;-0,1636;56,35185680;37,52180182;4,59000015;
19:47:20:082;0,0282;-0,0023;-0,1636;56,35185680;37,52180182;4,59000015;
19:47:20:084;0,1162;-0,0295;-0,1540;56,35185680;37,52180182;4,59000015;
19:47:20:088;0,1162;-0,0295;-0,1540;56,35185680;37,52180182;4,59000015;
19:47:20:090;0,1162;-0,0295;-0,1540;56,35185680;37,52180182;4,59000015;
19:47:20:092;0,1162;-0,0295;-0,1540;56,35185680;37,52180182;4,59000015;
19:47:20:142;0,1162;-0,0295;-0,1540;56,35185680;37,52180182;4,59000015;
19:47:20:145;0,0076;0,0472;0,0384;56,35185680;37,52180182;4,59000015;
19:47:20:166;0,0076;0,0472;0,0384;56,35185680;37,52180182;4,59000015;
19:47:20:169;0,0076;0,0472;0,0384;56,35185680;37,52180182;4,59000015;
19:47:20:171;0,0076;0,0472;0,0384;56,35185680;37,52180182;4,59000015;
19:47:20:173;0,0076;0,0472;0,0384;56,35185680;37,52180182;4,59000015;
19:47:20:223;0,0076;0,0472;0,0384;56,35185680;37,52180182;4,59000015;
19:47:20:225;-0,0545;-0,0469;0,2360;56,35185680;37,52180182;4,59000015;
19:47:20:244;-0,0545;-0,0469;0,2360;56,35185680;37,52180182;4,59000015;
19:47:20:246;-0,0545;-0,0469;0,2360;56,35185680;37,52180182;4,59000015;
19:47:20:248;-0,0545;-0,0469;0,2360;56,35185680;37,52180182;4,59000015;
19:47:20:250;-0,0545;-0,0469;0,2360;56,35185680;37,52180182;4,59000015;
19:47:20:259;-0,0545;-0,0469;0,2360;56,35185680;37,52180182;4,59000015;
19:47:20:264;-0,0460;-0,0521;0,2312;56,35185680;37,52180182;4,59000015;
19:47:20:305;-0,0460;-0,0521;0,2312;56,35185680;37,52180182;4,59000015;
19:47:20:308;-0,0460;-0,0521;0,2312;56,35185680;37,52180182;4,59000015;
19:47:20:333;-0,0460;-0,0521;0,2312;56,35185680;37,52180182;4,59000015;
19:47:20:336;-0,0316;-0,0168;-0,1321;56,35185680;37,52180182;4,59000015;
19:47:20:383;-0,0316;-0,0168;-0,1321;56,35185680;37,52180182;4,59000015;
19:47:20:386;-0,0301;-0,0190;-0,1175;56,35185680;37,52180182;4,59000015;
19:47:20:389;-0,0301;-0,0190;-0,1175;56,35185680;37,52180182;4,59000015;
19:47:20:392;-0,0301;-0,0190;-0,1175;56,35185680;37,52180182;4,59000015;
19:47:20:394;-0,0301;-0,0190;-0,1175;56,35185680;37,52180182;4,59000015;
19:47:20:396;-0,0301;-0,0190;-0,1175;56,35185680;37,52180182;4,59000015;
19:47:20:398;-0,0301;-0,0190;-0,1175;56,35185680;37,52180182;4,59000015;
19:47:20:443;-0,0301;-0,0190;-0,1175;56,35185680;37,52180182;4,59000015;
19:47:20:446;-0,0302;-0,0136;-0,0589;56,35185680;37,52180182;4,59000015;
19:47:20:462;-0,0302;-0,0136;-0,0589;56,35185680;37,52180182;4,59000015;
19:47:20:464;-0,0302;-0,0136;-0,0589;56,35185680;37,52180182;4,59000015;
19:47:20:465;-0,0302;-0,0136;-0,0589;56,35185680;37,52180182;4,59000015;
19:47:20:467;-0,0302;-0,0136;-0,0589;56,35185680;37,52180182;4,59000015;
19:47:20:514;-0,0302;-0,0136;-0,0589;56,35185680;37,52180182;4,59000015;
19:47:20:516;-0,0111;0,0299;-0,0448;56,35185680;37,52180182;4,59000015;
19:47:20:520;-0,0111;0,0299;-0,0448;56,35185680;37,52180182;4,59000015;
19:47:20:522;-0,0111;0,0299;-0,0448;56,35185680;37,52180182;4,59000015;
19:47:20:523;-0,0111;0,0299;-0,0448;56,35185680;37,52180182;4,59000015;
19:47:20:593;-0,0111;0,0299;-0,0448;56,35185680;37,52180182;4,59000015;
19:47:20:595;-0,0111;0,0299;-0,0448;56,35185680;37,52180182;4,59000015;
19:47:20:597;-0,0111;0,0299;-0,0448;56,35185680;37,52180182;4,59000015;
19:47:20:599;-0,0111;0,0299;-0,0448;56,35185680;37,52180182;4,59000015;
19:47:20:601;-0,0111;0,0299;-0,0448;56,35185680;37,52180182;4,59000015;
19:47:20:602;0,0310;0,0242;-0,2402;56,35185680;37,52180182;4,59000015;
19:47:20:654;0,0310;0,0242;-0,2402;56,35185680;37,52180182;4,59000015;
19:47:20:657;0,0497;0,0696;-0,2247;56,35185680;37,52180182;4,59000015;
19:47:20:670;0,0497;0,0696;-0,2247;56,35185680;37,52180182;4,59000015;
19:47:20:673;0,0497;0,0696;-0,2247;56,35185680;37,52180182;4,59000015;
19:47:20:675;0,0497;0,0696;-0,2247;56,35185680;37,52180182;4,59000015;
19:47:20:724;0,0497;0,0696;-0,2247;56,35185680;37,52180182;4,59000015;
19:47:20:727;-0,0476;-0,0300;0,2075;56,35185680;37,52180182;4,59000015;
19:47:20:738;-0,0476;-0,0300;0,2075;56,35185680;37,52180182;4,59000015;
19:47:20:741;-0,0476;-0,0300;0,2075;56,35185680;37,52180182;4,59000015;
19:47:20:743;-0,0476;-0,0300;0,2075;56,35185680;37,52180182;4,59000015;
19:47:20:768;-0,0476;-0,0300;0,2075;56,35185680;37,52180182;4,59000015;
19:47:20:770;-0,1064;-0,0730;0,4399;56,35185680;37,52180182;4,59000015;
19:47:20:795;-0,1064;-0,0730;0,4399;56,35185680;37,52180182;4,59000015;
19:47:20:796;-0,1047;-0,0747;0,4324;56,35182359;37,52177184;4,34000015;
19:47:20:815;-0,1047;-0,0747;0,4324;56,35182359;37,52177184;4,34000015;
19:47:20:817;-0,1047;-0,0747;0,4324;56,35182359;37,52177184;4,34000015;
19:47:20:818;-0,1047;-0,0747;0,4324;56,35182359;37,52177184;4,34000015;
19:47:20:819;-0,1047;-0,0747;0,4324;56,35182359;37,52177184;4,34000015;
19:47:20:821;-0,1047;-0,0747;0,4324;56,35182359;37,52177184;4,34000015;
19:47:20:874;-0,1047;-0,0747;0,4324;56,35182359;37,52177184;4,34000015;
19:47:20:876;-0,0831;-0,0156;0,1857;56,35182359;37,52177184;4,34000015;
19:47:20:891;-0,0831;-0,0156;0,1857;56,35182359;37,52177184;4,34000015;
19:47:20:893;-0,0831;-0,0156;0,1857;56,35182359;37,52177184;4,34000015;
19:47:20:894;-0,0831;-0,0156;0,1857;56,35182359;37,52177184;4,34000015;
19:47:20:945;-0,0831;-0,0156;0,1857;56,35182359;37,52177184;4,34000015;
19:47:20:947;-0,0353;-0,1170;-0,1818;56,35182359;37,52177184;4,34000015;
19:47:20:953;-0,0353;-0,1170;-0,1818;56,35182359;37,52177184;4,34000015;
19:47:20:955;-0,0353;-0,1170;-0,1818;56,35182359;37,52177184;4,34000015;
19:47:20:956;-0,0353;-0,1170;-0,1818;56,35182359;37,52177184;4,34000015;
19:47:21:006;-0,0353;-0,1170;-0,1818;56,35182359;37,52177184;4,34000015;
19:47:21:010;0,0008;-0,0957;-0,0506;56,35182359;37,52177184;4,34000015;
19:47:21:030;0,0008;-0,0957;-0,0506;56,35182359;37,52177184;4,34000015;
19:47:21:032;0,0008;-0,0957;-0,0506;56,35182359;37,52177184;4,34000015;
19:47:21:034;0,0008;-0,0957;-0,0506;56,35182359;37,52177184;4,34000015;
19:47:21:036;0,0008;-0,0957;-0,0506;56,35182359;37,52177184;4,34000015;
19:47:21:058;0,0124;-0,0422;-0,2065;56,35182359;37,52177184;4,34000015;
19:47:21:062;0,0124;-0,0422;-0,2065;56,35182359;37,52177184;4,34000015;
19:47:21:108;0,0124;-0,0422;-0,2065;56,35182359;37,52177184;4,34000015;
19:47:21:110;0,0026;-0,0394;-0,2023;56,35182359;37,52177184;4,34000015;
19:47:21:112;0,0026;-0,0394;-0,2023;56,35182359;37,52177184;4,34000015;
19:47:21:114;0,0026;-0,0394;-0,2023;56,35182359;37,52177184;4,34000015;
19:47:21:116;0,0026;-0,0394;-0,2023;56,35182359;37,52177184;4,34000015;
19:47:21:117;0,0026;-0,0394;-0,2023;56,35182359;37,52177184;4,34000015;
19:47:21:167;0,0026;-0,0394;-0,2023;56,35182359;37,52177184;4,34000015;
19:47:21:170;0,0382;-0,1312;-0,0954;56,35182359;37,52177184;4,34000015;
19:47:21:172;0,0382;-0,1312;-0,0954;56,35182359;37,52177184;4,34000015;
19:47:21:174;0,0382;-0,1312;-0,0954;56,35182359;37,52177184;4,34000015;
19:47:21:175;0,0382;-0,1312;-0,0954;56,35182359;37,52177184;4,34000015;
19:47:21:227;0,0382;-0,1312;-0,0954;56,35182359;37,52177184;4,34000015;
19:47:21:230;0,0475;-0,1278;0,0717;56,35182359;37,52177184;4,34000015;
19:47:21:246;0,0475;-0,1278;0,0717;56,35182359;37,52177184;4,34000015;
19:47:21:248;0,0475;-0,1278;0,0717;56,35182359;37,52177184;4,34000015;
19:47:21:250;0,0475;-0,1278;0,0717;56,35182359;37,52177184;4,34000015;
19:47:21:252;0,0475;-0,1278;0,0717;56,35182359;37,52177184;4,34000015;
19:47:21:281;0,0475;-0,1278;0,0717;56,35182359;37,52177184;4,34000015;
19:47:21:284;0,0144;-0,0502;0,0167;56,35182359;37,52177184;4,34000015;
19:47:21:320;0,0144;-0,0502;0,0167;56,35182359;37,52177184;4,34000015;
19:47:21:322;0,0144;-0,0502;0,0167;56,35182359;37,52177184;4,34000015;
19:47:21:325;0,0144;-0,0502;0,0167;56,35182359;37,52177184;4,34000015;
19:47:21:326;0,0144;-0,0502;0,0167;56,35182359;37,52177184;4,34000015;
19:47:21:377;0,0144;-0,0502;0,0167;56,35182359;37,52177184;4,34000015;
19:47:21:379;-0,0455;-0,1394;0,1585;56,35182359;37,52177184;4,34000015;
19:47:21:383;-0,0455;-0,1394;0,1585;56,35182359;37,52177184;4,34000015;
19:47:21:387;-0,0455;-0,1394;0,1585;56,35182359;37,52177184;4,34000015;
19:47:21:389;-0,0455;-0,1394;0,1585;56,35182359;37,52177184;4,34000015;
19:47:21:438;-0,0455;-0,1394;0,1585;56,35182359;37,52177184;4,34000015;
19:47:21:440;-0,0657;-0,1731;0,0647;56,35182359;37,52177184;4,34000015;
19:47:21:461;-0,0657;-0,1731;0,0647;56,35182359;37,52177184;4,34000015;
19:47:21:464;-0,0639;-0,1442;0,0585;56,35182359;37,52177184;4,34000015;
19:47:21:466;-0,0639;-0,1442;0,0585;56,35182359;37,52177184;4,34000015;
19:47:21:468;-0,0639;-0,1442;0,0585;56,35182359;37,52177184;4,34000015;
19:47:21:470;-0,0639;-0,1442;0,0585;56,35182359;37,52177184;4,34000015;
19:47:21:471;-0,0639;-0,1442;0,0585;56,35182359;37,52177184;4,34000015;
19:47:21:519;-0,0639;-0,1442;0,0585;56,35182359;37,52177184;4,34000015;
19:47:21:521;-0,0400;-0,2352;-0,0109;56,35182359;37,52177184;4,34000015;
19:47:21:541;-0,0400;-0,2352;-0,0109;56,35182359;37,52177184;4,34000015;
19:47:21:543;-0,0400;-0,2352;-0,0109;56,35182359;37,52177184;4,34000015;
19:47:21:545;-0,0400;-0,2352;-0,0109;56,35182359;37,52177184;4,34000015;
19:47:21:547;-0,0400;-0,2352;-0,0109;56,35182359;37,52177184;4,34000015;
19:47:21:581;-0,0400;-0,2352;-0,0109;56,35182359;37,52177184;4,34000015;
19:47:21:583;0,0610;-0,4912;-0,0880;56,35182359;37,52177184;4,34000015;
19:47:21:605;0,0610;-0,4912;-0,0880;56,35182359;37,52177184;4,34000015;
19:47:21:607;0,0610;-0,4912;-0,0880;56,35182359;37,52177184;4,34000015;
19:47:21:639;0,0610;-0,4912;-0,0880;56,35182359;37,52177184;4,34000015;
19:47:21:642;-0,0142;-0,6712;-0,0967;56,35182359;37,52177184;4,34000015;
19:47:21:678;-0,0142;-0,6712;-0,0967;56,35182359;37,52177184;4,34000015;
19:47:21:681;-0,0142;-0,6712;-0,0967;56,35182359;37,52177184;4,34000015;
19:47:21:683;-0,0142;-0,6712;-0,0967;56,35182359;37,52177184;4,34000015;
19:47:21:685;-0,0142;-0,6712;-0,0967;56,35182359;37,52177184;4,34000015;
19:47:21:686;-0,0142;-0,6712;-0,0967;56,35182359;37,52177184;4,34000015;
19:47:21:739;-0,0142;-0,6712;-0,0967;56,35182359;37,52177184;4,34000015;
19:47:21:741;-0,0413;-0,8167;-0,1011;56,35182359;37,52177184;4,34000015;
19:47:21:760;-0,0413;-0,8167;-0,1011;56,35182359;37,52177184;4,34000015;
19:47:21:763;-0,0413;-0,8167;-0,1011;56,35182359;37,52177184;4,34000015;
19:47:21:767;-0,0413;-0,8167;-0,1011;56,35182359;37,52177184;4,34000015;
19:47:21:792;-0,0413;-0,8167;-0,1011;56,35182359;37,52177184;4,34000015;
19:47:21:794;0,0356;-0,7986;0,0958;56,35178658;37,52174347;4,28999996;
19:47:21:816;0,0356;-0,7986;0,0958;56,35178658;37,52174347;4,28999996;
19:47:21:818;0,0356;-0,7986;0,0958;56,35178658;37,52174347;4,28999996;
19:47:21:841;0,0356;-0,7986;0,0958;56,35178658;37,52174347;4,28999996;
19:47:21:843;0,0067;-0,8116;0,1402;56,35178658;37,52174347;4,28999996;
19:47:21:895;0,0067;-0,8116;0,1402;56,35178658;37,52174347;4,28999996;
19:47:21:897;0,0072;-0,7969;0,1379;56,35178658;37,52174347;4,28999996;
19:47:21:899;0,0072;-0,7969;0,1379;56,35178658;37,52174347;4,28999996;
19:47:21:901;0,0072;-0,7969;0,1379;56,35178658;37,52174347;4,28999996;
19:47:21:903;0,0072;-0,7969;0,1379;56,35178658;37,52174347;4,28999996;
19:47:21:904;0,0072;-0,7969;0,1379;56,35178658;37,52174347;4,28999996;
19:47:21:906;0,0072;-0,7969;0,1379;56,35178658;37,52174347;4,28999996;
19:47:21:951;0,0072;-0,7969;0,1379;56,35178658;37,52174347;4,28999996;
19:47:21:955;0,0574;-0,7741;0,0322;56,35178658;37,52174347;4,28999996;
19:47:21:974;0,0574;-0,7741;0,0322;56,35178658;37,52174347;4,28999996;
19:47:21:976;0,0574;-0,7741;0,0322;56,35178658;37,52174347;4,28999996;
19:47:21:977;0,0574;-0,7741;0,0322;56,35178658;37,52174347;4,28999996;
19:47:21:979;0,0574;-0,7741;0,0322;56,35178658;37,52174347;4,28999996;
19:47:22:033;0,0574;-0,7741;0,0322;56,35178658;37,52174347;4,28999996;
19:47:22:036;0,0574;-0,7741;0,0322;56,35178658;37,52174347;4,28999996;
19:47:22:038;0,0574;-0,7741;0,0322;56,35178658;37,52174347;4,28999996;
19:47:22:040;0,0574;-0,7741;0,0322;56,35178658;37,52174347;4,28999996;
19:47:22:042;-0,0100;-0,6832;0,0168;56,35178658;37,52174347;4,28999996;
19:47:22:092;-0,0100;-0,6832;0,0168;56,35178658;37,52174347;4,28999996;
19:47:22:094;-0,0299;-0,5560;-0,0460;56,35178658;37,52174347;4,28999996;
19:47:22:105;-0,0299;-0,5560;-0,0460;56,35178658;37,52174347;4,28999996;
19:47:22:106;-0,0299;-0,5560;-0,0460;56,35178658;37,52174347;4,28999996;
19:47:22:108;-0,0299;-0,5560;-0,0460;56,35178658;37,52174347;4,28999996;
19:47:22:109;-0,0299;-0,5560;-0,0460;56,35178658;37,52174347;4,28999996;
19:47:22:174;-0,0335;-0,5009;-0,1574;56,35178658;37,52174347;4,28999996;
19:47:22:177;-0,0335;-0,5009;-0,1574;56,35178658;37,52174347;4,28999996;
19:47:22:184;-0,0335;-0,5009;-0,1574;56,35178658;37,52174347;4,28999996;
19:47:22:186;-0,0335;-0,5009;-0,1574;56,35178658;37,52174347;4,28999996;
19:47:22:188;-0,0335;-0,5009;-0,1574;56,35178658;37,52174347;4,28999996;
19:47:22:190;-0,0335;-0,5009;-0,1574;56,35178658;37,52174347;4,28999996;
19:47:22:192;-0,0335;-0,5009;-0,1574;56,35178658;37,52174347;4,28999996;
19:47:22:194;-0,0294;-0,4451;-0,1399;56,35178658;37,52174347;4,28999996;
19:47:22:241;-0,0294;-0,4451;-0,1399;56,35178658;37,52174347;4,28999996;
19:47:22:245;-0,0396;-0,4420;0,0623;56,35178658;37,52174347;4,28999996;
19:47:22:247;-0,0396;-0,4420;0,0623;56,35178658;37,52174347;4,28999996;
19:47:22:250;-0,0396;-0,4420;0,0623;56,35178658;37,52174347;4,28999996;
19:47:22:251;-0,0396;-0,4420;0,0623;56,35178658;37,52174347;4,28999996;
19:47:22:304;-0,0396;-0,4420;0,0623;56,35178658;37,52174347;4,28999996;
19:47:22:305;-0,0039;-0,3830;0,1521;56,35178658;37,52174347;4,28999996;
19:47:22:324;-0,0039;-0,3830;0,1521;56,35178658;37,52174347;4,28999996;
19:47:22:326;-0,0039;-0,3830;0,1521;56,35178658;37,52174347;4,28999996;
19:47:22:327;-0,0039;-0,3830;0,1521;56,35178658;37,52174347;4,28999996;
19:47:22:327;-0,0039;-0,3830;0,1521;56,35178658;37,52174347;4,28999996;
19:47:22:366;-0,0039;-0,3830;0,1521;56,35178658;37,52174347;4,28999996;
19:47:22:368;-0,0559;-0,2574;0,1199;56,35178658;37,52174347;4,28999996;
19:47:22:404;-0,0559;-0,2574;0,1199;56,35178658;37,52174347;4,28999996;
19:47:22:406;-0,0559;-0,2574;0,1199;56,35178658;37,52174347;4,28999996;
19:47:22:408;-0,0559;-0,2574;0,1199;56,35178658;37,52174347;4,28999996;
19:47:22:410;-0,0559;-0,2574;0,1199;56,35178658;37,52174347;4,28999996;
19:47:22:464;-0,0559;-0,2574;0,1199;56,35178658;37,52174347;4,28999996;
19:47:22:466;0,0293;0,1800;-0,1307;56,35178658;37,52174347;4,28999996;
19:47:22:468;0,0293;0,1800;-0,1307;56,35178658;37,52174347;4,28999996;
19:47:22:470;0,0293;0,1800;-0,1307;56,35178658;37,52174347;4,28999996;
19:47:22:471;0,0293;0,1800;-0,1307;56,35178658;37,52174347;4,28999996;
19:47:22:524;0,0293;0,1800;-0,1307;56,35178658;37,52174347;4,28999996;
19:47:22:526;0,0149;0,4289;-0,0854;56,35178658;37,52174347;4,28999996;
19:47:22:544;0,0149;0,4289;-0,0854;56,35178658;37,52174347;4,28999996;
19:47:22:549;0,0205;0,4163;-0,0850;56,35178658;37,52174347;4,28999996;
19:47:22:551;0,0205;0,4163;-0,0850;56,35178658;37,52174347;4,28999996;
19:47:22:553;0,0205;0,4163;-0,0850;56,35178658;37,52174347;4,28999996;
19:47:22:555;0,0205;0,4163;-0,0850;56,35178658;37,52174347;4,28999996;
19:47:22:556;0,0205;0,4163;-0,0850;56,35178658;37,52174347;4,28999996;
19:47:22:605;0,0205;0,4163;-0,0850;56,35178658;37,52174347;4,28999996;
19:47:22:607;-0,0295;0,4825;-0,1502;56,35178658;37,52174347;4,28999996;
19:47:22:621;-0,0295;0,4825;-0,1502;56,35178658;37,52174347;4,28999996;
19:47:22:623;-0,0295;0,4825;-0,1502;56,35178658;37,52174347;4,28999996;
19:47:22:625;-0,0295;0,4825;-0,1502;56,35178658;37,52174347;4,28999996;
19:47:22:674;-0,0295;0,4825;-0,1502;56,35178658;37,52174347;4,28999996;
19:47:22:677;0,0868;0,5083;0,1049;56,35178658;37,52174347;4,28999996;
19:47:22:687;0,0868;0,5083;0,1049;56,35178658;37,52174347;4,28999996;
19:47:22:689;0,0868;0,5083;0,1049;56,35178658;37,52174347;4,28999996;
19:47:22:691;0,0868;0,5083;0,1049;56,35178658;37,52174347;4,28999996;
19:47:22:735;0,0868;0,5083;0,1049;56,35178658;37,52174347;4,28999996;
19:47:22:737;0,0407;0,5842;0,0146;56,35178658;37,52174347;4,28999996;
19:47:22:758;0,0407;0,5842;0,0146;56,35178658;37,52174347;4,28999996;
19:47:22:761;0,0407;0,5842;0,0146;56,35178658;37,52174347;4,28999996;
19:47:22:764;0,0407;0,5842;0,0146;56,35178658;37,52174347;4,28999996;
19:47:22:767;0,0407;0,5842;0,0146;56,35178658;37,52174347;4,28999996;
19:47:22:814;0,0407;0,5842;0,0146;56,35178658;37,52174347;4,28999996;
19:47:22:816;-0,0110;0,5321;0,0202;56,35175436;37,52172462;3,57999992;
19:47:22:835;-0,0110;0,5321;0,0202;56,35175436;37,52172462;3,57999992;
19:47:22:836;-0,0110;0,5321;0,0202;56,35175436;37,52172462;3,57999992;
19:47:22:838;-0,0110;0,5321;0,0202;56,35175436;37,52172462;3,57999992;
19:47:22:838;-0,0110;0,5321;0,0202;56,35175436;37,52172462;3,57999992;
19:47:22:882;-0,0110;0,5321;0,0202;56,35175436;37,52172462;3,57999992;
19:47:22:884;0,0273;0,4741;-0,0325;56,35175436;37,52172462;3,57999992;
19:47:22:896;0,0273;0,4741;-0,0325;56,35175436;37,52172462;3,57999992;
19:47:22:898;0,0273;0,4741;-0,0325;56,35175436;37,52172462;3,57999992;
19:47:22:936;0,0273;0,4741;-0,0325;56,35175436;37,52172462;3,57999992;
19:47:22:938;0,0229;0,4206;0,0395;56,35175436;37,52172462;3,57999992;
19:47:22:975;0,0229;0,4206;0,0395;56,35175436;37,52172462;3,57999992;
19:47:22:978;0,0217;0,3721;0,0349;56,35175436;37,52172462;3,57999992;
19:47:22:981;0,0217;0,3721;0,0349;56,35175436;37,52172462;3,57999992;
19:47:22:983;0,0217;0,3721;0,0349;56,35175436;37,52172462;3,57999992;
19:47:22:985;0,0217;0,3721;0,0349;56,35175436;37,52172462;3,57999992;
19:47:22:986;0,0217;0,3721;0,0349;56,35175436;37,52172462;3,57999992;
19:47:22:987;0,0217;0,3721;0,0349;56,35175436;37,52172462;3,57999992;
19:47:23:037;0,0217;0,3721;0,0349;56,35175436;37,52172462;3,57999992;
19:47:23:039;0,1211;0,3152;0,0535;56,35175436;37,52172462;3,57999992;
19:47:23:056;0,1211;0,3152;0,0535;56,35175436;37,52172462;3,57999992;
19:47:23:058;0,1211;0,3152;0,0535;56,35175436;37,52172462;3,57999992;
19:47:23:060;0,1211;0,3152;0,0535;56,35175436;37,52172462;3,57999992;
19:47:23:062;0,1211;0,3152;0,0535;56,35175436;37,52172462;3,57999992;
19:47:23:107;0,1211;0,3152;0,0535;56,35175436;37,52172462;3,57999992;
19:47:23:109;-0,0501;0,3673;-0,1395;56,35175436;37,52172462;3,57999992;
19:47:23:114;-0,0501;0,3673;-0,1395;56,35175436;37,52172462;3,57999992;
19:47:23:116;-0,0501;0,3673;-0,1395;56,35175436;37,52172462;3,57999992;
19:47:23:118;-0,0501;0,3673;-0,1395;56,35175436;37,52172462;3,57999992;
19:47:23:191;-0,0501;0,3673;-0,1395;56,35175436;37,52172462;3,57999992;
19:47:23:194;-0,1047;0,2485;-0,0871;56,35175436;37,52172462;3,57999992;
19:47:23:196;-0,1047;0,2485;-0,0871;56,35175436;37,52172462;3,57999992;
19:47:23:198;-0,1047;0,2485;-0,0871;56,35175436;37,52172462;3,57999992;
19:47:23:199;-0,1047;0,2485;-0,0871;56,35175436;37,52172462;3,57999992;
19:47:23:201;-0,1047;0,2485;-0,0871;56,35175436;37,52172462;3,57999992;
19:47:23:248;-0,1047;0,2485;-0,0871;56,35175436;37,52172462;3,57999992;
19:47:23:251;0,0952;0,2451;0,0603;56,35175436;37,52172462;3,57999992;
19:47:23:275;0,0952;0,2451;0,0603;56,35175436;37,52172462;3,57999992;
19:47:23:277;0,0952;0,2451;0,0603;56,35175436;37,52172462;3,57999992;
19:47:23:280;0,0952;0,2451;0,0603;56,35175436;37,52172462;3,57999992;
19:47:23:282;0,0952;0,2451;0,0603;56,35175436;37,52172462;3,57999992;
19:47:23:285;0,0952;0,2451;0,0603;56,35175436;37,52172462;3,57999992;
19:47:23:287;0,0823;0,2182;0,0538;56,35175436;37,52172462;3,57999992;
19:47:23:326;0,0823;0,2182;0,0538;56,35175436;37,52172462;3,57999992;
19:47:23:329;0,0205;0,1979;-0,0591;56,35175436;37,52172462;3,57999992;
19:47:23:331;0,0205;0,1979;-0,0591;56,35175436;37,52172462;3,57999992;
19:47:23:332;0,0205;0,1979;-0,0591;56,35175436;37,52172462;3,57999992;
19:47:23:333;0,0205;0,1979;-0,0591;56,35175436;37,52172462;3,57999992;
19:47:23:389;0,0205;0,1979;-0,0591;56,35175436;37,52172462;3,57999992;
19:47:23:392;0,0064;0,1826;-0,0861;56,35175436;37,52172462;3,57999992;
19:47:23:407;0,0064;0,1826;-0,0861;56,35175436;37,52172462;3,57999992;
19:47:23:410;0,0064;0,1826;-0,0861;56,35175436;37,52172462;3,57999992;
19:47:23:413;0,0064;0,1826;-0,0861;56,35175436;37,52172462;3,57999992;
19:47:23:459;0,0064;0,1826;-0,0861;56,35175436;37,52172462;3,57999992;
19:47:23:462;0,0222;0,1573;0,0338;56,35175436;37,52172462;3,57999992;
19:47:23:486;0,0222;0,1573;0,0338;56,35175436;37,52172462;3,57999992;
19:47:23:488;0,0222;0,1573;0,0338;56,35175436;37,52172462;3,57999992;
19:47:23:491;0,0222;0,1573;0,0338;56,35175436;37,52172462;3,57999992;
19:47:23:494;0,0222;0,1573;0,0338;56,35175436;37,52172462;3,57999992;
19:47:23:540;0,0222;0,1573;0,0338;56,35175436;37,52172462;3,57999992;
19:47:23:543;0,0092;0,1120;0,1220;56,35175436;37,52172462;3,57999992;
19:47:23:546;0,0092;0,1120;0,1220;56,35175436;37,52172462;3,57999992;
19:47:23:548;0,0092;0,1120;0,1220;56,35175436;37,52172462;3,57999992;
19:47:23:550;0,0092;0,1120;0,1220;56,35175436;37,52172462;3,57999992;
19:47:23:599;0,0092;0,1120;0,1220;56,35175436;37,52172462;3,57999992;
19:47:23:602;-0,0187;0,0885;0,0289;56,35175436;37,52172462;3,57999992;
19:47:23:624;-0,0187;0,0885;0,0289;56,35175436;37,52172462;3,57999992;
19:47:23:627;-0,0187;0,0885;0,0289;56,35175436;37,52172462;3,57999992;
19:47:23:629;-0,0187;0,0885;0,0289;56,35175436;37,52172462;3,57999992;
19:47:23:632;-0,0187;0,0885;0,0289;56,35175436;37,52172462;3,57999992;
19:47:23:668;-0,0187;0,0885;0,0289;56,35175436;37,52172462;3,57999992;
19:47:23:670;0,0834;0,1165;-0,0661;56,35175436;37,52172462;3,57999992;
19:47:23:702;0,0834;0,1165;-0,0661;56,35175436;37,52172462;3,57999992;
19:47:23:705;0,0737;0,1032;-0,0587;56,35175436;37,52172462;3,57999992;
19:47:23:708;0,0737;0,1032;-0,0587;56,35175436;37,52172462;3,57999992;
19:47:23:709;0,0737;0,1032;-0,0587;56,35175436;37,52172462;3,57999992;
19:47:23:711;0,0737;0,1032;-0,0587;56,35175436;37,52172462;3,57999992;
19:47:23:713;0,0737;0,1032;-0,0587;56,35175436;37,52172462;3,57999992;
19:47:23:767;0,0110;0,0471;-0,1253;56,35175436;37,52172462;3,57999992;
19:47:23:770;0,0110;0,0471;-0,1253;56,35175436;37,52172462;3,57999992;
19:47:23:773;0,0110;0,0471;-0,1253;56,35175436;37,52172462;3,57999992;
19:47:23:775;0,0110;0,0471;-0,1253;56,35175436;37,52172462;3,57999992;
19:47:23:777;0,0110;0,0471;-0,1253;56,35175436;37,52172462;3,57999992;
19:47:23:820;0,0110;0,0471;-0,1253;56,35175436;37,52172462;3,57999992;
19:47:23:822;-0,0355;0,0531;0,0324;56,35172562;37,52170475;3,00999999;
19:47:23:838;-0,0355;0,0531;0,0324;56,35172562;37,52170475;3,00999999;
19:47:23:840;-0,0355;0,0531;0,0324;56,35172562;37,52170475;3,00999999;
19:47:23:841;-0,0355;0,0531;0,0324;56,35172562;37,52170475;3,00999999;
19:47:23:842;-0,0355;0,0531;0,0324;56,35172562;37,52170475;3,00999999;
19:47:23:902;-0,0355;0,0531;0,0324;56,35172562;37,52170475;3,00999999;
19:47:23:905;-0,0321;0,0550;0,0343;56,35172562;37,52170475;3,00999999;
19:47:23:925;-0,0321;0,0550;0,0343;56,35172562;37,52170475;3,00999999;
19:47:23:927;-0,0321;0,0550;0,0343;56,35172562;37,52170475;3,00999999;
19:47:23:930;-0,0321;0,0550;0,0343;56,35172562;37,52170475;3,00999999;
19:47:23:934;-0,0321;0,0550;0,0343;56,35172562;37,52170475;3,00999999;
19:47:23:937;-0,0321;0,0550;0,0343;56,35172562;37,52170475;3,00999999;
19:47:23:938;-0,0280;0,0507;0,0306;56,35172562;37,52170475;3,00999999;
19:47:23:977;-0,0280;0,0507;0,0306;56,35172562;37,52170475;3,00999999;
19:47:23:993;-0,0280;0,0507;0,0306;56,35172562;37,52170475;3,00999999;
19:47:23:996;-0,0145;0,0261;-0,0524;56,35172562;37,52170475;3,00999999;
19:47:24:052;-0,0145;0,0261;-0,0524;56,35172562;37,52170475;3,00999999;
19:47:24:054;-0,0145;0,0261;-0,0524;56,35172562;37,52170475;3,00999999;
19:47:24:056;-0,0145;0,0261;-0,0524;56,35172562;37,52170475;3,00999999;
19:47:24:057;-0,0145;0,0261;-0,0524;56,35172562;37,52170475;3,00999999;
19:47:24:059;-0,0145;0,0261;-0,0524;56,35172562;37,52170475;3,00999999;
19:47:24:060;-0,0145;0,0261;-0,0524;56,35172562;37,52170475;3,00999999;
19:47:24:062;-0,0145;0,0261;-0,0524;56,35172562;37,52170475;3,00999999;
19:47:24:064;0,0142;0,0175;0,0871;56,35172562;37,52170475;3,00999999;
19:47:24:113;0,0142;0,0175;0,0871;56,35172562;37,52170475;3,00999999;
19:47:24:115;-0,1265;0,0117;0,0103;56,35172562;37,52170475;3,00999999;
19:47:24:129;-0,1265;0,0117;0,0103;56,35172562;37,52170475;3,00999999;
19:47:24:132;-0,1265;0,0117;0,0103;56,35172562;37,52170475;3,00999999;
19:47:24:134;-0,1265;0,0117;0,0103;56,35172562;37,52170475;3,00999999;
19:47:24:183;-0,1265;0,0117;0,0103;56,35172562;37,52170475;3,00999999;
19:47:24:186;-0,0301;0,0538;-0,1958;56,35172562;37,52170475;3,00999999;
19:47:24:195;-0,0301;0,0538;-0,1958;56,35172562;37,52170475;3,00999999;
19:47:24:198;-0,0301;0,0538;-0,1958;56,35172562;37,52170475;3,00999999;
19:47:24:201;-0,0301;0,0538;-0,1958;56,35172562;37,52170475;3,00999999;
19:47:24:201;-0,0301;0,0538;-0,1958;56,35172562;37,52170475;3,00999999;
19:47:24:253;-0,0301;0,0538;-0,1958;56,35172562;37,52170475;3,00999999;
19:47:24:256;0,0696;0,0005;0,1303;56,35172562;37,52170475;3,00999999;
19:47:24:272;0,0696;0,0005;0,1303;56,35172562;37,52170475;3,00999999;
19:47:24:275;0,0696;0,0005;0,1303;56,35172562;37,52170475;3,00999999;
19:47:24:276;0,0696;0,0005;0,1303;56,35172562;37,52170475;3,00999999;
19:47:24:327;0,1329;0,0160;0,2256;56,35172562;37,52170475;3,00999999;
19:47:24:330;0,1329;0,0160;0,2256;56,35172562;37,52170475;3,00999999;
19:47:24:351;0,1329;0,0160;0,2256;56,35172562;37,52170475;3,00999999;
19:47:24:353;0,1329;0,0160;0,2256;56,35172562;37,52170475;3,00999999;
19:47:24:355;0,1329;0,0160;0,2256;56,35172562;37,52170475;3,00999999;
19:47:24:356;0,1329;0,0160;0,2256;56,35172562;37,52170475;3,00999999;
19:47:24:402;0,1329;0,0160;0,2256;56,35172562;37,52170475;3,00999999;
19:47:24:404;-0,0288;0,0555;-0,0587;56,35172562;37,52170475;3,00999999;
19:47:24:407;-0,0288;0,0555;-0,0587;56,35172562;37,52170475;3,00999999;
19:47:24:409;-0,0288;0,0555;-0,0587;56,35172562;37,52170475;3,00999999;
19:47:24:411;-0,0288;0,0555;-0,0587;56,35172562;37,52170475;3,00999999;
19:47:24:452;-0,0288;0,0555;-0,0587;56,35172562;37,52170475;3,00999999;
19:47:24:453;-0,0745;0,0223;-0,0851;56,35172562;37,52170475;3,00999999;
19:47:24:486;-0,0745;0,0223;-0,0851;56,35172562;37,52170475;3,00999999;
19:47:24:488;-0,0746;0,0229;-0,0835;56,35172562;37,52170475;3,00999999;
19:47:24:490;-0,0746;0,0229;-0,0835;56,35172562;37,52170475;3,00999999;
19:47:24:493;-0,0746;0,0229;-0,0835;56,35172562;37,52170475;3,00999999;
19:47:24:495;-0,0746;0,0229;-0,0835;56,35172562;37,52170475;3,00999999;
19:47:24:496;-0,0746;0,0229;-0,0835;56,35172562;37,52170475;3,00999999;
19:47:24:544;-0,0746;0,0229;-0,0835;56,35172562;37,52170475;3,00999999;
19:47:24:546;0,0219;0,0102;0,0020;56,35172562;37,52170475;3,00999999;
19:47:24:566;0,0219;0,0102;0,0020;56,35172562;37,52170475;3,00999999;
19:47:24:569;0,0219;0,0102;0,0020;56,35172562;37,52170475;3,00999999;
19:47:24:571;0,0219;0,0102;0,0020;56,35172562;37,52170475;3,00999999;
19:47:24:573;0,0219;0,0102;0,0020;56,35172562;37,52170475;3,00999999;
19:47:24:626;0,0219;0,0102;0,0020;56,35172562;37,52170475;3,00999999;
19:47:24:628;0,0779;0,0440;0,0519;56,35172562;37,52170475;3,00999999;
19:47:24:631;0,0779;0,0440;0,0519;56,35172562;37,52170475;3,00999999;
19:47:24:632;0,0779;0,0440;0,0519;56,35172562;37,52170475;3,00999999;
19:47:24:634;0,0779;0,0440;0,0519;56,35172562;37,52170475;3,00999999;
19:47:24:685;0,0067;-0,0118;-0,0417;56,35172562;37,52170475;3,00999999;
19:47:24:688;0,0067;-0,0118;-0,0417;56,35172562;37,52170475;3,00999999;
19:47:24:708;0,0067;-0,0118;-0,0417;56,35172562;37,52170475;3,00999999;
19:47:24:710;0,0067;-0,0118;-0,0417;56,35172562;37,52170475;3,00999999;
19:47:24:712;0,0067;-0,0118;-0,0417;56,35172562;37,52170475;3,00999999;
19:47:24:715;0,0067;-0,0118;-0,0417;56,35172562;37,52170475;3,00999999;
19:47:24:717;0,0063;-0,0099;-0,0370;56,35172562;37,52170475;3,00999999;
19:47:24:720;0,0063;-0,0099;-0,0370;56,35172562;37,52170475;3,00999999;
19:47:24:777;0,0063;-0,0099;-0,0370;56,35172562;37,52170475;3,00999999;
19:47:24:781;0,0063;-0,0099;-0,0370;56,35172562;37,52170475;3,00999999;
19:47:24:783;0,0063;-0,0099;-0,0370;56,35172562;37,52170475;3,00999999;
19:47:24:784;0,0063;-0,0099;-0,0370;56,35172562;37,52170475;3,00999999;
19:47:24:785;0,0063;-0,0099;-0,0370;56,35172562;37,52170475;3,00999999;
19:47:24:786;-0,0292;0,0050;0,0314;56,35172562;37,52170475;3,00999999;
19:47:24:837;-0,0292;0,0050;0,0314;56,35172562;37,52170475;3,00999999;
19:47:24:838;-0,0447;0,0043;0,0185;56,35169973;37,52168736;3,14000010;
19:47:24:840;-0,0447;0,0043;0,0185;56,35169973;37,52168736;3,14000010;
19:47:24:841;-0,0447;0,0043;0,0185;56,35169973;37,52168736;3,14000010;
19:47:24:842;-0,0447;0,0043;0,0185;56,35169973;37,52168736;3,14000010;
19:47:24:916;-0,0447;0,0043;0,0185;56,35169973;37,52168736;3,14000010;
19:47:24:918;-0,0447;0,0043;0,0185;56,35169973;37,52168736;3,14000010;
19:47:24:921;-0,0447;0,0043;0,0185;56,35169973;37,52168736;3,14000010;
19:47:24:923;-0,0447;0,0043;0,0185;56,35169973;37,52168736;3,14000010;
19:47:24:924;-0,0447;0,0043;0,0185;56,35169973;37,52168736;3,14000010;
19:47:24:927;0,0962;-0,0380;0,0861;56,35169973;37,52168736;3,14000010;
19:47:24:975;0,0962;-0,0380;0,0861;56,35169973;37,52168736;3,14000010;
19:47:24:978;0,0240;-0,0083;0,0104;56,35169973;37,52168736;3,14000010;
19:47:24:993;0,0240;-0,0083;0,0104;56,35169973;37,52168736;3,14000010;
19:47:24:998;0,0240;-0,0083;0,0104;56,35169973;37,52168736;3,14000010;
19:47:25:001;0,0240;-0,0083;0,0104;56,35169973;37,52168736;3,14000010;
19:47:25:047;0,0240;-0,0083;0,0104;56,35169973;37,52168736;3,14000010;
19:47:25:050;0,0017;0,0480;-0,1438;56,35169973;37,52168736;3,14000010;
19:47:25:058;0,0017;0,0480;-0,1438;56,35169973;37,52168736;3,14000010;
19:47:25:061;0,0017;0,0480;-0,1438;56,35169973;37,52168736;3,14000010;
19:47:25:063;0,0017;0,0480;-0,1438;56,35169973;37,52168736;3,14000010;
19:47:25:108;0,0017;0,0480;-0,1438;56,35169973;37,52168736;3,14000010;
19:47:25:112;-0,1149;-0,0094;-0,1229;56,35169973;37,52168736;3,14000010;
19:47:25:136;-0,1149;-0,0094;-0,1229;56,35169973;37,52168736;3,14000010;
19:47:25:139;-0,1149;-0,0094;-0,1229;56,35169973;37,52168736;3,14000010;
19:47:25:141;-0,1149;-0,0094;-0,1229;56,35169973;37,52168736;3,14000010;
19:47:25:143;-0,1149;-0,0094;-0,1229;56,35169973;37,52168736;3,14000010;
19:47:25:188;-0,1149;-0,0094;-0,1229;56,35169973;37,52168736;3,14000010;
19:47:25:191;0,0270;0,0203;0,0311;56,35169973;37,52168736;3,14000010;
19:47:25:214;0,0270;0,0203;0,0311;56,35169973;37,52168736;3,14000010;
19:47:25:217;0,0244;0,0186;0,0276;56,35169973;37,52168736;3,14000010;
19:47:25:221;0,0244;0,0186;0,0276;56,35169973;37,52168736;3,14000010;
19:47:25:224;0,0244;0,0186;0,0276;56,35169973;37,52168736;3,14000010;
19:47:25:226;0,0244;0,0186;0,0276;56,35169973;37,52168736;3,14000010;
19:47:25:228;0,0244;0,0186;0,0276;56,35169973;37,52168736;3,14000010;
19:47:25:273;0,0244;0,0186;0,0276;56,35169973;37,52168736;3,14000010;
19:47:25:275;0,0244;0,0186;0,0276;56,35169973;37,52168736;3,14000010;
19:47:25:298;0,0244;0,0186;0,0276;56,35169973;37,52168736;3,14000010;
19:47:25:300;-0,0101;0,0004;0,0730;56,35169973;37,52168736;3,14000010;
19:47:25:354;-0,0101;0,0004;0,0730;56,35169973;37,52168736;3,14000010;
19:47:25:357;0,0266;0,0057;-0,0819;56,35169973;37,52168736;3,14000010;
19:47:25:360;0,0266;0,0057;-0,0819;56,35169973;37,52168736;3,14000010;
19:47:25:362;0,0266;0,0057;-0,0819;56,35169973;37,52168736;3,14000010;
19:47:25:364;0,0266;0,0057;-0,0819;56,35169973;37,52168736;3,14000010;
19:47:25:365;0,0266;0,0057;-0,0819;56,35169973;37,52168736;3,14000010;
19:47:25:367;0,0266;0,0057;-0,0819;56,35169973;37,52168736;3,14000010;
19:47:25:431;0,0266;0,0057;-0,0819;56,35169973;37,52168736;3,14000010;
19:47:25:434;-0,0433;-0,0303;0,1063;56,35169973;37,52168736;3,14000010;
19:47:25:437;-0,0433;-0,0303;0,1063;56,35169973;37,52168736;3,14000010;
19:47:25:438;-0,0433;-0,0303;0,1063;56,35169973;37,52168736;3,14000010;
19:47:25:440;-0,0433;-0,0303;0,1063;56,35169973;37,52168736;3,14000010;
19:47:25:442;-0,0433;-0,0303;0,1063;56,35169973;37,52168736;3,14000010;
19:47:25:493;-0,0433;-0,0303;0,1063;56,35169973;37,52168736;3,14000010;
19:47:25:496;-0,0523;-0,0129;0,1323;56,35169973;37,52168736;3,14000010;
19:47:25:499;-0,0523;-0,0129;0,1323;56,35169973;37,52168736;3,14000010;
19:47:25:501;-0,0523;-0,0129;0,1323;56,35169973;37,52168736;3,14000010;
19:47:25:503;-0,0523;-0,0129;0,1323;56,35169973;37,52168736;3,14000010;
19:47:25:550;-0,0523;-0,0129;0,1323;56,35169973;37,52168736;3,14000010;
19:47:25:553;-0,0581;0,0136;-0,0522;56,35169973;37,52168736;3,14000010;
19:47:25:572;-0,0504;0,0099;-0,0466;56,35169973;37,52168736;3,14000010;
19:47:25:575;-0,0504;0,0099;-0,0466;56,35169973;37,52168736;3,14000010;
19:47:25:576;-0,0504;0,0099;-0,0466;56,35169973;37,52168736;3,14000010;
19:47:25:578;-0,0504;0,0099;-0,0466;56,35169973;37,52168736;3,14000010;
19:47:25:579;-0,0504;0,0099;-0,0466;56,35169973;37,52168736;3,14000010;
19:47:25:580;-0,0504;0,0099;-0,0466;56,35169973;37,52168736;3,14000010;
19:47:25:630;-0,0504;0,0099;-0,0466;56,35169973;37,52168736;3,14000010;
19:47:25:632;0,0310;0,0144;-0,0474;56,35169973;37,52168736;3,14000010;
19:47:25:652;0,0310;0,0144;-0,0474;56,35169973;37,52168736;3,14000010;
19:47:25:655;0,0310;0,0144;-0,0474;56,35169973;37,52168736;3,14000010;
19:47:25:657;0,0310;0,0144;-0,0474;56,35169973;37,52168736;3,14000010;
19:47:25:660;0,0310;0,0144;-0,0474;56,35169973;37,52168736;3,14000010;
19:47:25:710;0,0310;0,0144;-0,0474;56,35169973;37,52168736;3,14000010;
19:47:25:713;0,0860;0,0302;0,0586;56,35169973;37,52168736;3,14000010;
19:47:25:756;0,0860;0,0302;0,0586;56,35169973;37,52168736;3,14000010;
19:47:25:758;0,0860;0,0302;0,0586;56,35169973;37,52168736;3,14000010;
19:47:25:760;0,0860;0,0302;0,0586;56,35169973;37,52168736;3,14000010;
19:47:25:762;0,0860;0,0302;0,0586;56,35169973;37,52168736;3,14000010;
19:47:25:765;0,0860;0,0302;0,0586;56,35169973;37,52168736;3,14000010;
19:47:25:767;0,0860;0,0302;0,0586;56,35169973;37,52168736;3,14000010;
19:47:25:770;0,0807;0,0226;0,0516;56,35169973;37,52168736;3,14000010;
19:47:25:811;0,0807;0,0226;0,0516;56,35169973;37,52168736;3,14000010;
19:47:25:812;-0,0824;0,0159;-0,0701;56,35167841;37,52166905;2,91000009;
19:47:25:835;-0,0824;0,0159;-0,0701;56,35167841;37,52166905;2,91000009;
19:47:25:836;-0,0824;0,0159;-0,0701;56,35167841;37,52166905;2,91000009;
19:47:25:840;-0,0824;0,0159;-0,0701;56,35167841;37,52166905;2,91000009;
19:47:25:842;-0,0824;0,0159;-0,0701;56,35167841;37,52166905;2,91000009;
19:47:25:882;-0,0824;0,0159;-0,0701;56,35167841;37,52166905;2,91000009;
19:47:25:883;0,0798;0,0048;0,1170;56,35167841;37,52166905;2,91000009;
19:47:25:910;0,0798;0,0048;0,1170;56,35167841;37,52166905;2,91000009;
19:47:25:912;0,0798;0,0048;0,1170;56,35167841;37,52166905;2,91000009;
19:47:25:913;0,0798;0,0048;0,1170;56,35167841;37,52166905;2,91000009;
19:47:25:915;0,0798;0,0048;0,1170;56,35167841;37,52166905;2,91000009;
19:47:25:971;0,0798;0,0048;0,1170;56,35167841;37,52166905;2,91000009;
19:47:25:973;-0,0273;-0,0065;-0,0152;56,35167841;37,52166905;2,91000009;
19:47:26:017;-0,0273;-0,0065;-0,0152;56,35167841;37,52166905;2,91000009;
19:47:26:018;-0,0273;-0,0065;-0,0152;56,35167841;37,52166905;2,91000009;
19:47:26:019;-0,0273;-0,0065;-0,0152;56,35167841;37,52166905;2,91000009;
19:47:26:020;-0,0273;-0,0065;-0,0152;56,35167841;37,52166905;2,91000009;
19:47:26:021;-0,0273;-0,0065;-0,0152;56,35167841;37,52166905;2,91000009;
19:47:26:022;-0,0273;-0,0065;-0,0152;56,35167841;37,52166905;2,91000009;
19:47:26:023;0,0387;0,0077;-0,0184;56,35167841;37,52166905;2,91000009;
19:47:26:071;0,0387;0,0077;-0,0184;56,35167841;37,52166905;2,91000009;
19:47:26:073;-0,0460;-0,0184;0,0084;56,35167841;37,52166905;2,91000009;
19:47:26:096;-0,0460;-0,0184;0,0084;56,35167841;37,52166905;2,91000009;
19:47:26:099;-0,0460;-0,0184;0,0084;56,35167841;37,52166905;2,91000009;
19:47:26:101;-0,0460;-0,0184;0,0084;56,35167841;37,52166905;2,91000009;
19:47:26:103;-0,0460;-0,0184;0,0084;56,35167841;37,52166905;2,91000009;
19:47:26:151;-0,0460;-0,0184;0,0084;56,35167841;37,52166905;2,91000009;
19:47:26:154;-0,0839;-0,0300;0,0631;56,35167841;37,52166905;2,91000009;
19:47:26:214;-0,0839;-0,0300;0,0631;56,35167841;37,52166905;2,91000009;
19:47:26:217;-0,0839;-0,0300;0,0631;56,35167841;37,52166905;2,91000009;
19:47:26:218;-0,0839;-0,0300;0,0631;56,35167841;37,52166905;2,91000009;
19:47:26:220;-0,0839;-0,0300;0,0631;56,35167841;37,52166905;2,91000009;
19:47:26:222;-0,0839;-0,0300;0,0631;56,35167841;37,52166905;2,91000009;
19:47:26:223;-0,0839;-0,0300;0,0631;56,35167841;37,52166905;2,91000009;
19:47:26:226;-0,0839;-0,0300;0,0631;56,35167841;37,52166905;2,91000009;
19:47:26:228;0,0218;-0,0268;0,0963;56,35167841;37,52166905;2,91000009;
19:47:26:274;0,0218;-0,0268;0,0963;56,35167841;37,52166905;2,91000009;
19:47:26:275;0,0304;-0,0497;0,0695;56,35167841;37,52166905;2,91000009;
19:47:26:291;0,0304;-0,0497;0,0695;56,35167841;37,52166905;2,91000009;
19:47:26:299;0,0272;-0,0479;0,0616;56,35167841;37,52166905;2,91000009;
19:47:26:300;0,0272;-0,0479;0,0616;56,35167841;37,52166905;2,91000009;
19:47:26:302;0,0272;-0,0479;0,0616;56,35167841;37,52166905;2,91000009;
19:47:26:303;0,0272;-0,0479;0,0616;56,35167841;37,52166905;2,91000009;
19:47:26:304;0,0272;-0,0479;0,0616;56,35167841;37,52166905;2,91000009;
19:47:26:345;0,0272;-0,0479;0,0616;56,35167841;37,52166905;2,91000009;
19:47:26:346;0,0266;-0,0170;-0,0850;56,35167841;37,52166905;2,91000009;
19:47:26:353;0,0266;-0,0170;-0,0850;56,35167841;37,52166905;2,91000009;
19:47:26:354;0,0266;-0,0170;-0,0850;56,35167841;37,52166905;2,91000009;
19:47:26:355;0,0266;-0,0170;-0,0850;56,35167841;37,52166905;2,91000009;
19:47:26:432;0,0266;-0,0170;-0,0850;56,35167841;37,52166905;2,91000009;
19:47:26:434;-0,0501;0,0212;-0,1122;56,35167841;37,52166905;2,91000009;
19:47:26:436;-0,0501;0,0212;-0,1122;56,35167841;37,52166905;2,91000009;
19:47:26:438;-0,0501;0,0212;-0,1122;56,35167841;37,52166905;2,91000009;
19:47:26:440;-0,0501;0,0212;-0,1122;56,35167841;37,52166905;2,91000009;
19:47:26:442;-0,0501;0,0212;-0,1122;56,35167841;37,52166905;2,91000009;
19:47:26:486;-0,0501;0,0212;-0,1122;56,35167841;37,52166905;2,91000009;
19:47:26:488;-0,0490;0,0128;-0,0432;56,35167841;37,52166905;2,91000009;
19:47:26:510;-0,0490;0,0128;-0,0432;56,35167841;37,52166905;2,91000009;
19:47:26:513;-0,0490;0,0128;-0,0432;56,35167841;37,52166905;2,91000009;
19:47:26:517;-0,0490;0,0128;-0,0432;56,35167841;37,52166905;2,91000009;
19:47:26:520;-0,0490;0,0128;-0,0432;56,35167841;37,52166905;2,91000009;
19:47:26:536;-0,0490;0,0128;-0,0432;56,35167841;37,52166905;2,91000009;
19:47:26:538;-0,0422;0,0072;-0,0387;56,35167841;37,52166905;2,91000009;
19:47:26:569;-0,0422;0,0072;-0,0387;56,35167841;37,52166905;2,91000009;
19:47:26:595;-0,0422;0,0072;-0,0387;56,35167841;37,52166905;2,91000009;
19:47:26:598;0,0365;0,0318;0,0415;56,35167841;37,52166905;2,91000009;
19:47:26:649;-0,0032;0,0176;0,0891;56,35167841;37,52166905;2,91000009;
19:47:26:652;-0,0032;0,0176;0,0891;56,35167841;37,52166905;2,91000009;
19:47:26:654;-0,0032;0,0176;0,0891;56,35167841;37,52166905;2,91000009;
19:47:26:656;-0,0032;0,0176;0,0891;56,35167841;37,52166905;2,91000009;
19:47:26:658;-0,0032;0,0176;0,0891;56,35167841;37,52166905;2,91000009;
19:47:26:660;-0,0032;0,0176;0,0891;56,35167841;37,52166905;2,91000009;
19:47:26:661;-0,0032;0,0176;0,0891;56,35167841;37,52166905;2,91000009;
19:47:26:663;-0,0032;0,0176;0,0891;56,35167841;37,52166905;2,91000009;
19:47:26:706;-0,0032;0,0176;0,0891;56,35167841;37,52166905;2,91000009;
19:47:26:708;0,0329;0,0255;-0,0644;56,35167841;37,52166905;2,91000009;
19:47:26:727;0,0329;0,0255;-0,0644;56,35167841;37,52166905;2,91000009;
19:47:26:730;0,0329;0,0255;-0,0644;56,35167841;37,52166905;2,91000009;
19:47:26:732;0,0329;0,0255;-0,0644;56,35167841;37,52166905;2,91000009;
19:47:26:736;0,0329;0,0255;-0,0644;56,35167841;37,52166905;2,91000009;
19:47:26:785;0,0329;0,0255;-0,0644;56,35167841;37,52166905;2,91000009;
19:47:26:787;-0,0382;0,1527;-0,0655;56,35167841;37,52166905;2,91000009;
19:47:26:789;-0,0382;0,1527;-0,0655;56,35167841;37,52166905;2,91000009;
19:47:26:791;-0,0382;0,1527;-0,0655;56,35167841;37,52166905;2,91000009;
19:47:26:792;-0,0382;0,1527;-0,0655;56,35167841;37,52166905;2,91000009;
19:47:26:846;-0,0382;0,1527;-0,0655;56,35167841;37,52166905;2,91000009;
19:47:26:847;0,0142;0,3740;0,0750;56,35165682;37,52165331;2,89000010;
19:47:26:871;0,0142;0,3740;0,0750;56,35165682;37,52165331;2,89000010;
19:47:26:873;0,0142;0,3740;0,0750;56,35165682;37,52165331;2,89000010;
19:47:26:874;0,0142;0,3740;0,0750;56,35165682;37,52165331;2,89000010;
19:47:26:876;0,0142;0,3740;0,0750;56,35165682;37,52165331;2,89000010;
19:47:26:905;0,0142;0,3740;0,0750;56,35165682;37,52165331;2,89000010;
19:47:26:907;-0,0158;0,5605;0,1207;56,35165682;37,52165331;2,89000010;
19:47:26:943;-0,0158;0,5605;0,1207;56,35165682;37,52165331;2,89000010;
19:47:26:944;-0,0158;0,5605;0,1207;56,35165682;37,52165331;2,89000010;
19:47:26:946;-0,0158;0,5605;0,1207;56,35165682;37,52165331;2,89000010;
19:47:26:998;-0,0158;0,5605;0,1207;56,35165682;37,52165331;2,89000010;
19:47:27:001;0,0427;0,6342;-0,0218;56,35165682;37,52165331;2,89000010;
19:47:27:004;0,0427;0,6342;-0,0218;56,35165682;37,52165331;2,89000010;
19:47:27:006;0,0427;0,6342;-0,0218;56,35165682;37,52165331;2,89000010;
19:47:27:007;0,0427;0,6342;-0,0218;56,35165682;37,52165331;2,89000010;
19:47:27:050;0,0427;0,6342;-0,0218;56,35165682;37,52165331;2,89000010;
19:47:27:052;0,0831;0,6020;0,0046;56,35165682;37,52165331;2,89000010;
19:47:27:080;0,0831;0,6020;0,0046;56,35165682;37,52165331;2,89000010;
19:47:27:083;0,0824;0,5901;0,0044;56,35165682;37,52165331;2,89000010;
19:47:27:086;0,0824;0,5901;0,0044;56,35165682;37,52165331;2,89000010;
19:47:27:089;0,0824;0,5901;0,0044;56,35165682;37,52165331;2,89000010;
19:47:27:091;0,0824;0,5901;0,0044;56,35165682;37,52165331;2,89000010;
19:47:27:093;0,0824;0,5901;0,0044;56,35165682;37,52165331;2,89000010;
19:47:27:137;0,0824;0,5901;0,0044;56,35165682;37,52165331;2,89000010;
19:47:27:139;0,0169;0,4666;-0,0163;56,35165682;37,52165331;2,89000010;
19:47:27:160;0,0169;0,4666;-0,0163;56,35165682;37,52165331;2,89000010;
19:47:27:164;0,0169;0,4666;-0,0163;56,35165682;37,52165331;2,89000010;
19:47:27:167;0,0169;0,4666;-0,0163;56,35165682;37,52165331;2,89000010;
19:47:27:169;0,0169;0,4666;-0,0163;56,35165682;37,52165331;2,89000010;
19:47:27:221;0,0169;0,4666;-0,0163;56,35165682;37,52165331;2,89000010;
19:47:27:224;-0,0300;0,2131;-0,0223;56,35165682;37,52165331;2,89000010;
19:47:27:227;-0,0300;0,2131;-0,0223;56,35165682;37,52165331;2,89000010;
19:47:27:229;-0,0300;0,2131;-0,0223;56,35165682;37,52165331;2,89000010;
19:47:27:231;-0,0300;0,2131;-0,0223;56,35165682;37,52165331;2,89000010;
19:47:27:279;-0,0300;0,2131;-0,0223;56,35165682;37,52165331;2,89000010;
19:47:27:282;-0,0609;0,2172;-0,1019;56,35165682;37,52165331;2,89000010;
19:47:27:298;-0,0609;0,2172;-0,1019;56,35165682;37,52165331;2,89000010;
19:47:27:301;-0,0609;0,2172;-0,1019;56,35165682;37,52165331;2,89000010;
19:47:27:302;-0,0609;0,2172;-0,1019;56,35165682;37,52165331;2,89000010;
19:47:27:305;-0,0609;0,2172;-0,1019;56,35165682;37,52165331;2,89000010;
19:47:27:312;-0,0609;0,2172;-0,1019;56,35165682;37,52165331;2,89000010;
19:47:27:315;-0,0648;0,2171;-0,0998;56,35165682;37,52165331;2,89000010;
19:47:27:369;-0,0648;0,2171;-0,0998;56,35165682;37,52165331;2,89000010;
19:47:27:373;0,0051;0,1537;-0,0444;56,35165682;37,52165331;2,89000010;
19:47:27:377;0,0051;0,1537;-0,0444;56,35165682;37,52165331;2,89000010;
19:47:27:379;0,0051;0,1537;-0,0444;56,35165682;37,52165331;2,89000010;
19:47:27:382;0,0051;0,1537;-0,0444;56,35165682;37,52165331;2,89000010;
19:47:27:384;0,0051;0,1537;-0,0444;56,35165682;37,52165331;2,89000010;
19:47:27:435;0,0051;0,1537;-0,0444;56,35165682;37,52165331;2,89000010;
19:47:27:438;0,0051;0,1537;-0,0444;56,35165682;37,52165331;2,89000010;
19:47:27:480;0,0051;0,1537;-0,0444;56,35165682;37,52165331;2,89000010;
19:47:27:484;0,0990;0,1587;0,0367;56,35165682;37,52165331;2,89000010;
19:47:27:514;0,0990;0,1587;0,0367;56,35165682;37,52165331;2,89000010;
19:47:27:517;-0,0063;0,1329;0,1737;56,35165682;37,52165331;2,89000010;
19:47:27:520;-0,0063;0,1329;0,1737;56,35165682;37,52165331;2,89000010;
19:47:27:522;-0,0063;0,1329;0,1737;56,35165682;37,52165331;2,89000010;
19:47:27:524;-0,0063;0,1329;0,1737;56,35165682;37,52165331;2,89000010;
19:47:27:526;-0,0063;0,1329;0,1737;56,35165682;37,52165331;2,89000010;
19:47:27:528;-0,0063;0,1329;0,1737;56,35165682;37,52165331;2,89000010;
19:47:27:568;-0,0063;0,1329;0,1737;56,35165682;37,52165331;2,89000010;
19:47:27:570;-0,0273;0,1388;0,0152;56,35165682;37,52165331;2,89000010;
19:47:27:592;-0,0273;0,1388;0,0152;56,35165682;37,52165331;2,89000010;
19:47:27:594;-0,0273;0,1388;0,0152;56,35165682;37,52165331;2,89000010;
19:47:27:596;-0,0273;0,1388;0,0152;56,35165682;37,52165331;2,89000010;
19:47:27:598;-0,0273;0,1388;0,0152;56,35165682;37,52165331;2,89000010;
19:47:27:652;-0,0273;0,1388;0,0152;56,35165682;37,52165331;2,89000010;
19:47:27:655;0,0769;0,1180;-0,0943;56,35165682;37,52165331;2,89000010;
19:47:27:658;0,0769;0,1180;-0,0943;56,35165682;37,52165331;2,89000010;
19:47:27:659;0,0769;0,1180;-0,0943;56,35165682;37,52165331;2,89000010;
19:47:27:661;0,0769;0,1180;-0,0943;56,35165682;37,52165331;2,89000010;
19:47:27:712;0,0769;0,1180;-0,0943;56,35165682;37,52165331;2,89000010;
19:47:27:714;-0,0213;0,0862;-0,0170;56,35165682;37,52165331;2,89000010;
19:47:27:730;-0,0213;0,0862;-0,0170;56,35165682;37,52165331;2,89000010;
19:47:27:732;-0,0198;0,0760;-0,0150;56,35165682;37,52165331;2,89000010;
19:47:27:735;-0,0198;0,0760;-0,0150;56,35165682;37,52165331;2,89000010;
19:47:27:737;-0,0198;0,0760;-0,0150;56,35165682;37,52165331;2,89000010;
19:47:27:738;-0,0198;0,0760;-0,0150;56,35165682;37,52165331;2,89000010;
19:47:27:740;-0,0198;0,0760;-0,0150;56,35165682;37,52165331;2,89000010;
19:47:27:790;-0,0198;0,0760;-0,0150;56,35165682;37,52165331;2,89000010;
19:47:27:794;0,0322;0,0586;-0,0144;56,35165682;37,52165331;2,89000010;
19:47:27:807;0,0322;0,0586;-0,0144;56,35165682;37,52165331;2,89000010;
19:47:27:809;0,0322;0,0586;-0,0144;56,35163412;37,52163865;2,94000006;
19:47:27:811;0,0322;0,0586;-0,0144;56,35163412;37,52163865;2,94000006;
19:47:27:866;0,0322;0,0586;-0,0144;56,35163412;37,52163865;2,94000006;
19:47:27:868;0,0322;0,0586;-0,0144;56,35163412;37,52163865;2,94000006;
19:47:27:891;0,0322;0,0586;-0,0144;56,35163412;37,52163865;2,94000006;
19:47:27:893;-0,0495;0,0269;0,0190;56,35163412;37,52163865;2,94000006;
19:47:27:929;-0,0495;0,0269;0,0190;56,35163412;37,52163865;2,94000006;
19:47:27:931;-0,0418;0,0221;0,0167;56,35163412;37,52163865;2,94000006;
19:47:27:947;-0,0418;0,0221;0,0167;56,35163412;37,52163865;2,94000006;
19:47:27:949;-0,0418;0,0221;0,0167;56,35163412;37,52163865;2,94000006;
19:47:27:951;-0,0418;0,0221;0,0167;56,35163412;37,52163865;2,94000006;
19:47:27:953;-0,0418;0,0221;0,0167;56,35163412;37,52163865;2,94000006;
19:47:27:955;-0,0418;0,0221;0,0167;56,35163412;37,52163865;2,94000006;
19:47:28:002;-0,0418;0,0221;0,0167;56,35163412;37,52163865;2,94000006;
19:47:28:005;0,0344;-0,0515;0,0594;56,35163412;37,52163865;2,94000006;
19:47:28:025;0,0344;-0,0515;0,0594;56,35163412;37,52163865;2,94000006;
19:47:28:027;0,0344;-0,0515;0,0594;56,35163412;37,52163865;2,94000006;
19:47:28:029;0,0344;-0,0515;0,0594;56,35163412;37,52163865;2,94000006;
19:47:28:033;0,0344;-0,0515;0,0594;56,35163412;37,52163865;2,94000006;
19:47:28:085;0,0344;-0,0515;0,0594;56,35163412;37,52163865;2,94000006;
19:47:28:090;0,0369;-0,0459;-0,0105;56,35163412;37,52163865;2,94000006;
19:47:28:093;0,0369;-0,0459;-0,0105;56,35163412;37,52163865;2,94000006;
19:47:28:095;0,0369;-0,0459;-0,0105;56,35163412;37,52163865;2,94000006;
19:47:28:097;0,0369;-0,0459;-0,0105;56,35163412;37,52163865;2,94000006;
19:47:28:144;0,0369;-0,0459;-0,0105;56,35163412;37,52163865;2,94000006;
19:47:28:146;-0,0867;-0,0982;0,0260;56,35163412;37,52163865;2,94000006;
19:47:28:165;-0,0867;-0,0982;0,0260;56,35163412;37,52163865;2,94000006;
19:47:28:167;-0,0855;-0,0869;0,0237;56,35163412;37,52163865;2,94000006;
19:47:28:170;-0,0855;-0,0869;0,0237;56,35163412;37,52163865;2,94000006;
19:47:28:172;-0,0855;-0,0869;0,0237;56,35163412;37,52163865;2,94000006;
19:47:28:173;-0,0855;-0,0869;0,0237;56,35163412;37,52163865;2,94000006;
19:47:28:175;-0,0855;-0,0869;0,0237;56,35163412;37,52163865;2,94000006;
19:47:28:224;-0,0855;-0,0869;0,0237;56,35163412;37,52163865;2,94000006;
19:47:28:226;-0,0788;-0,1748;-0,0993;56,35163412;37,52163865;2,94000006;
19:47:28:244;-0,0788;-0,1748;-0,0993;56,35163412;37,52163865;2,94000006;
19:47:28:247;-0,0788;-0,1748;-0,0993;56,35163412;37,52163865;2,94000006;
19:47:28:250;-0,0788;-0,1748;-0,0993;56,35163412;37,52163865;2,94000006;
19:47:28:252;-0,0788;-0,1748;-0,0993;56,35163412;37,52163865;2,94000006;
19:47:28:302;-0,0788;-0,1748;-0,0993;56,35163412;37,52163865;2,94000006;
19:47:28:305;0,1182;-0,2543;0,1141;56,35163412;37,52163865;2,94000006;
19:47:28:349;0,1182;-0,2543;0,1141;56,35163412;37,52163865;2,94000006;
19:47:28:352;0,1182;-0,2543;0,1141;56,35163412;37,52163865;2,94000006;
19:47:28:354;0,1182;-0,2543;0,1141;56,35163412;37,52163865;2,94000006;
19:47:28:355;0,1182;-0,2543;0,1141;56,35163412;37,52163865;2,94000006;
19:47:28:357;0,1182;-0,2543;0,1141;56,35163412;37,52163865;2,94000006;
19:47:28:358;0,1182;-0,2543;0,1141;56,35163412;37,52163865;2,94000006;
19:47:28:360;0,1192;-0,2523;0,1120;56,35163412;37,52163865;2,94000006;
19:47:28:405;0,1192;-0,2523;0,1120;56,35163412;37,52163865;2,94000006;
19:47:28:407;0,0524;-0,2359;0,0803;56,35163412;37,52163865;2,94000006;
19:47:28:427;0,0524;-0,2359;0,0803;56,35163412;37,52163865;2,94000006;
19:47:28:429;0,0524;-0,2359;0,0803;56,35163412;37,52163865;2,94000006;
19:47:28:432;0,0524;-0,2359;0,0803;56,35163412;37,52163865;2,94000006;
19:47:28:435;0,0524;-0,2359;0,0803;56,35163412;37,52163865;2,94000006;
19:47:28:495;0,0524;-0,2359;0,0803;56,35163412;37,52163865;2,94000006;
19:47:28:501;0,0090;-0,2112;-0,0930;56,35163412;37,52163865;2,94000006;
19:47:28:505;0,0090;-0,2112;-0,0930;56,35163412;37,52163865;2,94000006;
19:47:28:507;0,0090;-0,2112;-0,0930;56,35163412;37,52163865;2,94000006;
19:47:28:508;0,0090;-0,2112;-0,0930;56,35163412;37,52163865;2,94000006;
19:47:28:511;0,0090;-0,2112;-0,0930;56,35163412;37,52163865;2,94000006;
19:47:28:554;0,0090;-0,2112;-0,0930;56,35163412;37,52163865;2,94000006;
19:47:28:556;-0,0324;-0,1809;-0,1277;56,35163412;37,52163865;2,94000006;
19:47:28:611;-0,0324;-0,1809;-0,1277;56,35163412;37,52163865;2,94000006;
19:47:28:615;-0,0324;-0,1809;-0,1277;56,35163412;37,52163865;2,94000006;
19:47:28:618;-0,0324;-0,1809;-0,1277;56,35163412;37,52163865;2,94000006;
19:47:28:620;-0,0324;-0,1809;-0,1277;56,35163412;37,52163865;2,94000006;
19:47:28:623;-0,0324;-0,1809;-0,1277;56,35163412;37,52163865;2,94000006;
19:47:28:624;-0,0324;-0,1809;-0,1277;56,35163412;37,52163865;2,94000006;
19:47:28:626;0,0251;-0,1543;-0,1081;56,35163412;37,52163865;2,94000006;
19:47:28:666;0,0251;-0,1543;-0,1081;56,35163412;37,52163865;2,94000006;
19:47:28:668;0,0262;-0,1646;0,2639;56,35163412;37,52163865;2,94000006;
19:47:28:689;0,0262;-0,1646;0,2639;56,35163412;37,52163865;2,94000006;
19:47:28:692;0,0262;-0,1646;0,2639;56,35163412;37,52163865;2,94000006;
19:47:28:693;0,0262;-0,1646;0,2639;56,35163412;37,52163865;2,94000006;
19:47:28:695;0,0262;-0,1646;0,2639;56,35163412;37,52163865;2,94000006;
19:47:28:745;0,0262;-0,1646;0,2639;56,35163412;37,52163865;2,94000006;
19:47:28:747;0,0146;-0,1727;0,1420;56,35163412;37,52163865;2,94000006;
19:47:28:806;0,0146;-0,1727;0,1420;56,35163412;37,52163865;2,94000006;
19:47:28:807;0,0146;-0,1727;0,1420;56,35160911;37,52161965;3,13000011;
19:47:28:809;0,0146;-0,1727;0,1420;56,35160911;37,52161965;3,13000011;
19:47:28:810;0,0146;-0,1727;0,1420;56,35160911;37,52161965;3,13000011;
19:47:28:812;0,0146;-0,1727;0,1420;56,35160911;37,52161965;3,13000011;
19:47:28:813;0,0146;-0,1727;0,1420;56,35160911;37,52161965;3,13000011;
19:47:28:814;0,0146;-0,1727;0,1420;56,35160911;37,52161965;3,13000011;
19:47:28:815;-0,0566;-0,1784;0,0812;56,35160911;37,52161965;3,13000011;
19:47:28:868;-0,0566;-0,1784;0,0812;56,35160911;37,52161965;3,13000011;
19:47:28:870;-0,0197;-0,1644;-0,0070;56,35160911;37,52161965;3,13000011;
19:47:28:886;-0,0305;-0,1563;-0,0059;56,35160911;37,52161965;3,13000011;
19:47:28:891;-0,0305;-0,1563;-0,0059;56,35160911;37,52161965;3,13000011;
19:47:28:893;-0,0305;-0,1563;-0,0059;56,35160911;37,52161965;3,13000011;
19:47:28:895;-0,0305;-0,1563;-0,0059;56,35160911;37,52161965;3,13000011;
19:47:28:897;-0,0305;-0,1563;-0,0059;56,35160911;37,52161965;3,13000011;
19:47:28:900;-0,0305;-0,1563;-0,0059;56,35160911;37,52161965;3,13000011;
19:47:28:938;-0,0305;-0,1563;-0,0059;56,35160911;37,52161965;3,13000011;
19:47:28:942;0,0433;-0,1568;-0,0237;56,35160911;37,52161965;3,13000011;
19:47:28:947;0,0433;-0,1568;-0,0237;56,35160911;37,52161965;3,13000011;
19:47:28:949;0,0433;-0,1568;-0,0237;56,35160911;37,52161965;3,13000011;
19:47:28:951;0,0433;-0,1568;-0,0237;56,35160911;37,52161965;3,13000011;
19:47:29:007;0,0433;-0,1568;-0,0237;56,35160911;37,52161965;3,13000011;
19:47:29:012;0,0551;-0,1275;0,0946;56,35160911;37,52161965;3,13000011;
19:47:29:024;0,0551;-0,1275;0,0946;56,35160911;37,52161965;3,13000011;
19:47:29:026;0,0551;-0,1275;0,0946;56,35160911;37,52161965;3,13000011;
19:47:29:028;0,0551;-0,1275;0,0946;56,35160911;37,52161965;3,13000011;
19:47:29:030;0,0551;-0,1275;0,0946;56,35160911;37,52161965;3,13000011;
19:47:29:077;0,0551;-0,1275;0,0946;56,35160911;37,52161965;3,13000011;
19:47:29:078;0,0251;-0,1224;0,0403;56,35160911;37,52161965;3,13000011;
19:47:29:102;0,0251;-0,1224;0,0403;56,35160911;37,52161965;3,13000011;
19:47:29:103;0,0251;-0,1224;0,0403;56,35160911;37,52161965;3,13000011;
19:47:29:104;0,0251;-0,1224;0,0403;56,35160911;37,52161965;3,13000011;
19:47:29:105;0,0251;-0,1224;0,0403;56,35160911;37,52161965;3,13000011;
19:47:29:128;0,0251;-0,1224;0,0403;56,35160911;37,52161965;3,13000011;
19:47:29:129;0,0280;-0,1118;0,0353;56,35160911;37,52161965;3,13000011;
19:47:29:163;0,0280;-0,1118;0,0353;56,35160911;37,52161965;3,13000011;
19:47:29:187;0,0280;-0,1118;0,0353;56,35160911;37,52161965;3,13000011;
19:47:29:188;-0,0587;-0,0967;0,1351;56,35160911;37,52161965;3,13000011;
19:47:29:242;-0,0587;-0,0967;0,1351;56,35160911;37,52161965;3,13000011;
19:47:29:243;-0,0587;-0,0967;0,1351;56,35160911;37,52161965;3,13000011;
19:47:29:244;-0,0587;-0,0967;0,1351;56,35160911;37,52161965;3,13000011;
19:47:29:245;-0,0587;-0,0967;0,1351;56,35160911;37,52161965;3,13000011;
19:47:29:246;-0,0587;-0,0967;0,1351;56,35160911;37,52161965;3,13000011;
19:47:29:248;-0,0587;-0,0967;0,1351;56,35160911;37,52161965;3,13000011;
19:47:29:249;-0,0587;-0,0967;0,1351;56,35160911;37,52161965;3,13000011;
19:47:29:250;-0,0687;-0,0867;-0,1000;56,35160911;37,52161965;3,13000011;
19:47:29:300;-0,0687;-0,0867;-0,1000;56,35160911;37,52161965;3,13000011;
19:47:29:301;-0,0263;-0,0487;-0,1597;56,35160911;37,52161965;3,13000011;
19:47:29:319;-0,0263;-0,0487;-0,1597;56,35160911;37,52161965;3,13000011;
19:47:29:322;-0,0263;-0,0487;-0,1597;56,35160911;37,52161965;3,13000011;
19:47:29:323;-0,0263;-0,0487;-0,1597;56,35160911;37,52161965;3,13000011;
19:47:29:324;-0,0263;-0,0487;-0,1597;56,35160911;37,52161965;3,13000011;
19:47:29:381;-0,0263;-0,0487;-0,1597;56,35160911;37,52161965;3,13000011;
19:47:29:384;0,0289;-0,0882;0,0200;56,35160911;37,52161965;3,13000011;
19:47:29:386;0,0289;-0,0882;0,0200;56,35160911;37,52161965;3,13000011;
19:47:29:388;0,0289;-0,0882;0,0200;56,35160911;37,52161965;3,13000011;
19:47:29:390;0,0289;-0,0882;0,0200;56,35160911;37,52161965;3,13000011;
19:47:29:439;0,0289;-0,0882;0,0200;56,35160911;37,52161965;3,13000011;
19:47:29:442;-0,0484;-0,0486;0,0889;56,35160911;37,52161965;3,13000011;
19:47:29:460;-0,0484;-0,0486;0,0889;56,35160911;37,52161965;3,13000011;
19:47:29:463;-0,0484;-0,0486;0,0889;56,35160911;37,52161965;3,13000011;
19:47:29:466;-0,0484;-0,0486;0,0889;56,35160911;37,52161965;3,13000011;
19:47:29:468;-0,0484;-0,0486;0,0889;56,35160911;37,52161965;3,13000011;
19:47:29:521;-0,0484;-0,0486;0,0889;56,35160911;37,52161965;3,13000011;
19:47:29:524;0,0442;-0,0775;0,0002;56,35160911;37,52161965;3,13000011;
19:47:29:542;0,0442;-0,0775;0,0002;56,35160911;37,52161965;3,13000011;
19:47:29:544;0,0442;-0,0775;0,0002;56,35160911;37,52161965;3,13000011;
19:47:29:546;0,0442;-0,0775;0,0002;56,35160911;37,52161965;3,13000011;
19:47:29:591;0,0442;-0,0775;0,0002;56,35160911;37,52161965;3,13000011;
19:47:29:594;0,0830;-0,0793;0,0666;56,35160911;37,52161965;3,13000011;
19:47:29:596;0,0830;-0,0793;0,0666;56,35160911;37,52161965;3,13000011;
19:47:29:598;0,0830;-0,0793;0,0666;56,35160911;37,52161965;3,13000011;
19:47:29:601;0,0830;-0,0793;0,0666;56,35160911;37,52161965;3,13000011;
19:47:29:643;0,0830;-0,0793;0,0666;56,35160911;37,52161965;3,13000011;
19:47:29:646;0,0188;-0,0425;0,0272;56,35160911;37,52161965;3,13000011;
19:47:29:673;0,0188;-0,0425;0,0272;56,35160911;37,52161965;3,13000011;
19:47:29:676;0,0239;-0,0398;0,0236;56,35160911;37,52161965;3,13000011;
19:47:29:678;0,0239;-0,0398;0,0236;56,35160911;37,52161965;3,13000011;
19:47:29:681;0,0239;-0,0398;0,0236;56,35160911;37,52161965;3,13000011;
19:47:29:682;0,0239;-0,0398;0,0236;56,35160911;37,52161965;3,13000011;
19:47:29:684;0,0239;-0,0398;0,0236;56,35160911;37,52161965;3,13000011;
19:47:29:732;0,0239;-0,0398;0,0236;56,35160911;37,52161965;3,13000011;
19:47:29:734;-0,0974;-0,0649;-0,1380;56,35160911;37,52161965;3,13000011;
19:47:29:753;-0,0974;-0,0649;-0,1380;56,35160911;37,52161965;3,13000011;
19:47:29:758;-0,0974;-0,0649;-0,1380;56,35160911;37,52161965;3,13000011;
19:47:29:760;-0,0974;-0,0649;-0,1380;56,35160911;37,52161965;3,13000011;
19:47:29:762;-0,0974;-0,0649;-0,1380;56,35160911;37,52161965;3,13000011;
19:47:29:812;-0,0974;-0,0649;-0,1380;56,35160911;37,52161965;3,13000011;
19:47:29:814;-0,0974;-0,0649;-0,1380;56,35158234;37,52160031;3,06999993;
19:47:29:815;-0,0974;-0,0649;-0,1380;56,35158234;37,52160031;3,06999993;
19:47:29:817;-0,0974;-0,0649;-0,1380;56,35158234;37,52160031;3,06999993;
19:47:29:818;-0,0043;-0,0031;-0,0471;56,35158234;37,52160031;3,06999993;
19:47:29:872;-0,0043;-0,0031;-0,0471;56,35158234;37,52160031;3,06999993;
19:47:29:873;-0,0354;-0,0403;-0,0704;56,35158234;37,52160031;3,06999993;
19:47:29:892;-0,0354;-0,0403;-0,0704;56,35158234;37,52160031;3,06999993;
19:47:29:894;-0,0354;-0,0403;-0,0704;56,35158234;37,52160031;3,06999993;
19:47:29:896;-0,0354;-0,0403;-0,0704;56,35158234;37,52160031;3,06999993;
19:47:29:900;-0,0354;-0,0403;-0,0704;56,35158234;37,52160031;3,06999993;
19:47:29:906;-0,0354;-0,0403;-0,0704;56,35158234;37,52160031;3,06999993;
19:47:29:909;-0,0368;-0,0351;-0,0622;56,35158234;37,52160031;3,06999993;
19:47:29:961;-0,0368;-0,0351;-0,0622;56,35158234;37,52160031;3,06999993;
19:47:29:963;0,0010;-0,0430;0,1398;56,35158234;37,52160031;3,06999993;
19:47:29:965;0,0010;-0,0430;0,1398;56,35158234;37,52160031;3,06999993;
19:47:29:967;0,0010;-0,0430;0,1398;56,35158234;37,52160031;3,06999993;
19:47:29:969;0,0010;-0,0430;0,1398;56,35158234;37,52160031;3,06999993;
19:47:29:970;0,0010;-0,0430;0,1398;56,35158234;37,52160031;3,06999993;
19:47:30:022;0,0010;-0,0430;0,1398;56,35158234;37,52160031;3,06999993;
19:47:30:024;0,0644;-0,0360;0,0950;56,35158234;37,52160031;3,06999993;
19:47:30:027;0,0644;-0,0360;0,0950;56,35158234;37,52160031;3,06999993;
19:47:30:030;0,0644;-0,0360;0,0950;56,35158234;37,52160031;3,06999993;
19:47:30:033;0,0644;-0,0360;0,0950;56,35158234;37,52160031;3,06999993;
19:47:30:083;0,0644;-0,0360;0,0950;56,35158234;37,52160031;3,06999993;
19:47:30:085;-0,0677;0,0181;-0,2000;56,35158234;37,52160031;3,06999993;
19:47:30:106;-0,0677;0,0181;-0,2000;56,35158234;37,52160031;3,06999993;
19:47:30:108;-0,0677;0,0181;-0,2000;56,35158234;37,52160031;3,06999993;
