
time;ax;ay;az;Latitude;Longitude;Speed (m/s);
21:04:46:693;0,0000;0,0000;0,0000;0,00000000;0,00000000;0,00000000;
21:04:46:696;0,0000;0,0000;0,0000;56,37834984;37,54069192;1,38999999;
21:04:46:714;0,0000;0,0000;0,0000;56,37834984;37,54069192;1,38999999;
21:04:46:715;0,0000;0,0000;-0,0000;56,37834984;37,54069192;1,38999999;
21:04:46:753;0,0000;0,0000;-0,0000;56,37834984;37,54069192;1,38999999;
21:04:46:753;0,0000;0,0000;-0,0000;56,37834984;37,54069192;1,38999999;
21:04:46:754;0,0105;-0,0067;0,0198;56,37834984;37,54069192;1,38999999;
21:04:46:784;0,0105;-0,0067;0,0198;56,37834984;37,54069192;1,38999999;
21:04:46:786;0,0043;-0,0218;0,0264;56,37834984;37,54069192;1,38999999;
21:04:46:875;0,0043;-0,0218;0,0264;56,37834984;37,54069192;1,38999999;
21:04:46:877;0,0018;-0,0108;0,0131;56,37834984;37,54069192;1,38999999;
21:04:46:880;0,0018;-0,0108;0,0131;56,37834984;37,54069192;1,38999999;
21:04:46:942;-0,0090;-0,0177;0,0201;56,37834984;37,54069192;1,38999999;
21:04:46:947;-0,0090;-0,0177;0,0201;56,37834984;37,54069192;1,38999999;
21:04:46:949;-0,0090;-0,0177;0,0201;56,37834984;37,54069192;1,38999999;
21:04:46:996;-0,0997;-0,0336;0,0839;56,37834984;37,54069192;1,38999999;
21:04:46:998;-0,0997;-0,0336;0,0839;56,37834984;37,54069192;1,38999999;
21:04:46:999;-0,0997;-0,0336;0,0839;56,37834984;37,54069192;1,38999999;
21:04:47:077;-0,0997;-0,0336;0,0839;56,37834984;37,54069192;1,38999999;
21:04:47:079;-0,0719;-0,0359;0,0841;56,37834984;37,54069192;1,38999999;
21:04:47:080;-0,0719;-0,0359;0,0841;56,37834984;37,54069192;1,38999999;
21:04:47:137;-0,0719;-0,0359;0,0841;56,37834984;37,54069192;1,38999999;
21:04:47:138;-0,0719;-0,0359;0,0841;56,37834984;37,54069192;1,38999999;
21:04:47:139;0,0146;-0,0056;0,0193;56,37834984;37,54069192;1,38999999;
21:04:47:196;0,0146;-0,0056;0,0193;56,37834984;37,54069192;1,38999999;
21:04:47:197;0,0146;-0,0056;0,0193;56,37834984;37,54069192;1,38999999;
21:04:47:198;-0,0128;0,0125;0,0566;56,37834984;37,54069192;1,38999999;
21:04:47:256;-0,0128;0,0125;0,0566;56,37834984;37,54069192;1,38999999;
21:04:47:257;-0,0128;0,0125;0,0566;56,37834984;37,54069192;1,38999999;
21:04:47:258;-0,0130;-0,0131;-0,1260;56,37834984;37,54069192;1,38999999;
21:04:47:283;-0,0130;-0,0131;-0,1260;56,37834984;37,54069192;1,38999999;
21:04:47:284;-0,0117;-0,0492;-0,0764;56,37834984;37,54069192;1,38999999;
21:04:47:337;-0,0117;-0,0492;-0,0764;56,37834984;37,54069192;1,38999999;
21:04:47:337;-0,0117;-0,0492;-0,0764;56,37834984;37,54069192;1,38999999;
21:04:47:338;-0,0937;-0,0529;-0,1931;56,37834984;37,54069192;1,38999999;
21:04:47:398;-0,0937;-0,0529;-0,1931;56,37834984;37,54069192;1,38999999;
21:04:47:400;-0,0937;-0,0529;-0,1931;56,37834984;37,54069192;1,38999999;
21:04:47:400;0,0589;0,0404;-0,0338;56,37834984;37,54069192;1,38999999;
21:04:47:457;0,0589;0,0404;-0,0338;56,37834984;37,54069192;1,38999999;
21:04:47:461;0,0589;0,0404;-0,0338;56,37834984;37,54069192;1,38999999;
21:04:47:463;-0,0066;0,0303;0,1237;56,37834984;37,54069192;1,38999999;
21:04:47:518;-0,0066;0,0303;0,1237;56,37834984;37,54069192;1,38999999;
21:04:47:520;-0,0066;0,0303;0,1237;56,37834984;37,54069192;1,38999999;
21:04:47:522;0,0748;-0,0096;0,0036;56,37834984;37,54069192;1,38999999;
21:04:47:551;0,0748;-0,0096;0,0036;56,37834984;37,54069192;1,38999999;
21:04:47:600;0,0748;-0,0096;0,0036;56,37834984;37,54069192;1,38999999;
21:04:47:603;0,0748;-0,0096;0,0036;56,37834984;37,54069192;1,38999999;
21:04:47:605;-0,0827;-0,0070;-0,0825;56,37834984;37,54069192;1,38999999;
21:04:47:661;-0,0827;-0,0070;-0,0825;56,37834984;37,54069192;1,38999999;
21:04:47:664;-0,0827;-0,0070;-0,0825;56,37834984;37,54069192;1,38999999;
21:04:47:666;0,0066;-0,0080;0,0967;56,37834984;37,54069192;1,38999999;
21:04:47:721;0,0066;-0,0080;0,0967;56,37834984;37,54069192;1,38999999;
21:04:47:725;0,0066;-0,0080;0,0967;56,37834984;37,54069192;1,38999999;
21:04:47:727;-0,0300;-0,0420;-0,1625;56,37834984;37,54069192;1,38999999;
21:04:47:779;-0,0300;-0,0420;-0,1625;56,37834984;37,54069192;1,38999999;
21:04:47:781;-0,0300;-0,0420;-0,1625;56,37834984;37,54069192;1,38999999;
21:04:47:782;-0,1386;-0,0535;-0,0928;56,37834984;37,54069192;1,38999999;
21:04:47:861;-0,1386;-0,0535;-0,0928;56,37834984;37,54069192;1,38999999;
21:04:47:867;-0,1386;-0,0535;-0,0928;56,37834984;37,54069192;1,38999999;
21:04:47:868;-0,0322;-0,0076;-0,1723;56,37834984;37,54069192;1,38999999;
21:04:47:920;-0,0322;-0,0076;-0,1723;56,37834984;37,54069192;1,38999999;
21:04:47:921;-0,0322;-0,0076;-0,1723;56,37834984;37,54069192;1,38999999;
21:04:47:922;0,0976;0,0770;0,1161;56,37834984;37,54069192;1,38999999;
21:04:47:981;0,0976;0,0770;0,1161;56,37834984;37,54069192;1,38999999;
21:04:47:984;0,0976;0,0770;0,1161;56,37834984;37,54069192;1,38999999;
21:04:47:986;0,2800;0,1786;0,0863;56,37834984;37,54069192;1,38999999;
21:04:48:044;0,2800;0,1786;0,0863;56,37834984;37,54069192;1,38999999;
21:04:48:046;0,2800;0,1786;0,0863;56,37834984;37,54069192;1,38999999;
21:04:48:048;0,4179;0,3928;-0,1398;56,37834984;37,54069192;1,38999999;
21:04:48:069;0,4179;0,3928;-0,1398;56,37834984;37,54069192;1,38999999;
21:04:48:070;0,3840;0,3724;-0,1335;56,37834984;37,54069192;1,38999999;
21:04:48:122;0,3840;0,3724;-0,1335;56,37834984;37,54069192;1,38999999;
21:04:48:125;0,3840;0,3724;-0,1335;56,37834984;37,54069192;1,38999999;
21:04:48:127;-0,0595;-0,0360;0,1130;56,37834984;37,54069192;1,38999999;
21:04:48:181;-0,0595;-0,0360;0,1130;56,37834984;37,54069192;1,38999999;
21:04:48:183;-0,0595;-0,0360;0,1130;56,37834984;37,54069192;1,38999999;
21:04:48:184;-0,3218;-0,3354;0,4887;56,37834984;37,54069192;1,38999999;
21:04:48:245;-0,3218;-0,3354;0,4887;56,37834984;37,54069192;1,38999999;
21:04:48:248;-0,3218;-0,3354;0,4887;56,37834984;37,54069192;1,38999999;
21:04:48:250;-0,2537;-0,3792;0,2127;56,37834984;37,54069192;1,38999999;
21:04:48:302;-0,2537;-0,3792;0,2127;56,37834984;37,54069192;1,38999999;
21:04:48:304;-0,2537;-0,3792;0,2127;56,37834984;37,54069192;1,38999999;
21:04:48:306;-0,4868;-0,2607;-0,2162;56,37834984;37,54069192;1,38999999;
21:04:48:332;-0,4868;-0,2607;-0,2162;56,37834984;37,54069192;1,38999999;
21:04:48:384;-0,4868;-0,2607;-0,2162;56,37834984;37,54069192;1,38999999;
21:04:48:386;-0,4868;-0,2607;-0,2162;56,37834984;37,54069192;1,38999999;
21:04:48:388;0,3046;0,2050;-0,1853;56,37834984;37,54069192;1,38999999;
21:04:48:446;0,3046;0,2050;-0,1853;56,37834984;37,54069192;1,38999999;
21:04:48:448;0,3046;0,2050;-0,1853;56,37834984;37,54069192;1,38999999;
21:04:48:449;0,2551;0,1534;0,0217;56,37834984;37,54069192;1,38999999;
21:04:48:508;0,2551;0,1534;0,0217;56,37834984;37,54069192;1,38999999;
21:04:48:511;0,2551;0,1534;0,0217;56,37834984;37,54069192;1,38999999;
21:04:48:514;-0,0857;0,0061;0,1833;56,37834984;37,54069192;1,38999999;
21:04:48:565;-0,0857;0,0061;0,1833;56,37834984;37,54069192;1,38999999;
21:04:48:567;-0,0857;0,0061;0,1833;56,37834984;37,54069192;1,38999999;
21:04:48:570;0,0820;0,0522;-0,1085;56,37834984;37,54069192;1,38999999;
21:04:48:649;0,0820;0,0522;-0,1085;56,37834984;37,54069192;1,38999999;
21:04:48:650;0,0820;0,0522;-0,1085;56,37834984;37,54069192;1,38999999;
21:04:48:652;0,1052;0,0362;-0,2850;56,37834984;37,54069192;1,38999999;
21:04:48:705;-0,9001;-0,8156;-0,4535;56,37834984;37,54069192;1,38999999;
21:04:48:709;-0,9001;-0,8156;-0,4535;56,37834984;37,54069192;1,38999999;
21:04:48:710;-0,9001;-0,8156;-0,4535;56,37834984;37,54069192;1,38999999;
21:04:48:764;-0,9001;-0,8156;-0,4535;56,37834984;37,54069192;1,38999999;
21:04:48:765;-0,9001;-0,8156;-0,4535;56,37834984;37,54069192;1,38999999;
21:04:48:767;-1,9450;-1,2440;0,6985;56,37834984;37,54069192;1,38999999;
21:04:48:824;-1,9450;-1,2440;0,6985;56,37834984;37,54069192;1,38999999;
21:04:48:826;-1,9450;-1,2440;0,6985;56,37834984;37,54069192;1,38999999;
21:04:48:827;-1,8244;-1,8752;0,1442;56,37834984;37,54069192;1,38999999;
21:04:48:853;-1,8244;-1,8752;0,1442;56,37834984;37,54069192;1,38999999;
21:04:48:854;-1,7148;-1,1189;-0,3117;56,37834984;37,54069192;1,38999999;
21:04:48:905;-1,7148;-1,1189;-0,3117;56,37834984;37,54069192;1,38999999;
21:04:48:907;-1,7148;-1,1189;-0,3117;56,37834984;37,54069192;1,38999999;
21:04:48:910;-1,2410;-1,1064;0,1902;56,37834984;37,54069192;1,38999999;
21:04:48:966;-1,2410;-1,1064;0,1902;56,37834984;37,54069192;1,38999999;
21:04:48:967;-1,2410;-1,1064;0,1902;56,37834984;37,54069192;1,38999999;
21:04:48:969;1,4341;-0,1056;1,4357;56,37834984;37,54069192;1,38999999;
21:04:49:029;1,4341;-0,1056;1,4357;56,37834984;37,54069192;1,38999999;
21:04:49:031;1,4341;-0,1056;1,4357;56,37834984;37,54069192;1,38999999;
21:04:49:034;3,3884;1,1734;1,4998;56,37834984;37,54069192;1,38999999;
21:04:49:087;3,3884;1,1734;1,4998;56,37834984;37,54069192;1,38999999;
21:04:49:088;3,3884;1,1734;1,4998;56,37834984;37,54069192;1,38999999;
21:04:49:091;2,4633;1,0679;-0,6964;56,37834984;37,54069192;1,38999999;
21:04:49:107;2,4633;1,0679;-0,6964;56,37834984;37,54069192;1,38999999;
21:04:49:168;2,4633;1,0679;-0,6964;56,37834984;37,54069192;1,38999999;
21:04:49:170;2,4633;1,0679;-0,6964;56,37834984;37,54069192;1,38999999;
21:04:49:172;-0,3816;-0,4546;1,0173;56,37834984;37,54069192;1,38999999;
21:04:49:230;-0,7171;-0,2957;-0,8501;56,37834984;37,54069192;1,38999999;
21:04:49:233;-0,7171;-0,2957;-0,8501;56,37834984;37,54069192;1,38999999;
21:04:49:237;-0,7171;-0,2957;-0,8501;56,37834984;37,54069192;1,38999999;
21:04:49:289;-0,7171;-0,2957;-0,8501;56,37834984;37,54069192;1,38999999;
21:04:49:291;-0,7171;-0,2957;-0,8501;56,37834984;37,54069192;1,38999999;
21:04:49:293;1,3107;0,2239;1,4032;56,37834984;37,54069192;1,38999999;
21:04:49:351;1,3107;0,2239;1,4032;56,37834984;37,54069192;1,38999999;
21:04:49:353;1,3107;0,2239;1,4032;56,37834984;37,54069192;1,38999999;
21:04:49:355;0,0003;0,3863;0,2701;56,37834984;37,54069192;1,38999999;
21:04:49:430;-0,1283;-0,2865;0,4949;56,37834984;37,54069192;1,38999999;
21:04:49:433;-0,1283;-0,2865;0,4949;56,37834984;37,54069192;1,38999999;
21:04:49:435;-0,1283;-0,2865;0,4949;56,37834984;37,54069192;1,38999999;
21:04:49:489;-0,1283;-0,2865;0,4949;56,37834984;37,54069192;1,38999999;
21:04:49:491;-0,1283;-0,2865;0,4949;56,37834984;37,54069192;1,38999999;
21:04:49:494;-0,0076;-0,3455;0,3682;56,37834984;37,54069192;1,38999999;
21:04:49:549;-0,0076;-0,3455;0,3682;56,37834984;37,54069192;1,38999999;
21:04:49:551;-0,0076;-0,3455;0,3682;56,37834984;37,54069192;1,38999999;
21:04:49:553;0,1607;-0,2825;0,4735;56,37834984;37,54069192;1,38999999;
21:04:49:612;0,1607;-0,2825;0,4735;56,37834984;37,54069192;1,38999999;
21:04:49:615;0,1607;-0,2825;0,4735;56,37834984;37,54069192;1,38999999;
21:04:49:617;0,2685;-0,6636;0,5051;56,37834984;37,54069192;1,38999999;
21:04:49:629;0,2685;-0,6636;0,5051;56,37834984;37,54069192;1,38999999;
21:04:49:631;0,1133;-1,4061;0,9703;56,37834984;37,54069192;1,38999999;
21:04:49:690;0,1133;-1,4061;0,9703;56,37834984;37,54069192;1,38999999;
21:04:49:695;0,1133;-1,4061;0,9703;56,37834984;37,54069192;1,38999999;
21:04:49:697;0,6973;-0,8411;0,2080;56,37834984;37,54069192;1,38999999;
21:04:49:750;0,6973;-0,8411;0,2080;56,37834984;37,54069192;1,38999999;
21:04:49:752;0,6973;-0,8411;0,2080;56,37834984;37,54069192;1,38999999;
21:04:49:754;0,3231;-0,7973;0,2689;56,37834984;37,54069192;1,38999999;
21:04:49:813;0,3231;-0,7973;0,2689;56,37834984;37,54069192;1,38999999;
21:04:49:815;0,3231;-0,7973;0,2689;56,37834984;37,54069192;1,38999999;
21:04:49:817;0,0512;-0,4166;0,3244;56,37834984;37,54069192;1,38999999;
21:04:49:870;0,0512;-0,4166;0,3244;56,37834984;37,54069192;1,38999999;
21:04:49:871;0,0512;-0,4166;0,3244;56,35157234;37,52166017;0,46000001;
21:04:49:874;-0,0773;-0,1363;0,3590;56,35157234;37,52166017;0,46000001;
21:04:49:891;-0,0773;-0,1363;0,3590;56,35157234;37,52166017;0,46000001;
21:04:49:951;-0,0773;-0,1363;0,3590;56,35157234;37,52166017;0,46000001;
21:04:49:952;-0,0773;-0,1363;0,3590;56,35157234;37,52166017;0,46000001;
21:04:49:954;-0,0718;-0,2022;0,4667;56,35157234;37,52166017;0,46000001;
21:04:50:012;-0,0718;-0,2022;0,4667;56,35157234;37,52166017;0,46000001;
21:04:50:015;-0,0718;-0,2022;0,4667;56,35157234;37,52166017;0,46000001;
21:04:50:017;0,0785;-0,0682;0,6618;56,35157234;37,52166017;0,46000001;
21:04:50:071;0,0785;-0,0682;0,6618;56,35157234;37,52166017;0,46000001;
21:04:50:074;1,0865;-0,1927;1,2202;56,35157234;37,52166017;0,46000001;
21:04:50:076;1,0865;-0,1927;1,2202;56,35157234;37,52166017;0,46000001;
21:04:50:133;1,0865;-0,1927;1,2202;56,35157234;37,52166017;0,46000001;
21:04:50:135;1,0865;-0,1927;1,2202;56,35157234;37,52166017;0,46000001;
21:04:50:137;3,3004;-0,1709;-0,4409;56,35157234;37,52166017;0,46000001;
21:04:50:213;3,3004;-0,1709;-0,4409;56,35157234;37,52166017;0,46000001;
21:04:50:216;3,3004;-0,1709;-0,4409;56,35157234;37,52166017;0,46000001;
21:04:50:218;6,0280;-0,4312;0,5049;56,35157234;37,52166017;0,46000001;
21:04:50:273;6,0280;-0,4312;0,5049;56,35157234;37,52166017;0,46000001;
21:04:50:276;6,0280;-0,4312;0,5049;56,35157234;37,52166017;0,46000001;
21:04:50:280;3,9462;-1,7475;-2,8954;56,35157234;37,52166017;0,46000001;
21:04:50:290;3,9462;-1,7475;-2,8954;56,35157234;37,52166017;0,46000001;
21:04:50:292;3,7663;-1,0956;-3,2996;56,35157234;37,52166017;0,46000001;
21:04:50:343;3,7663;-1,0956;-3,2996;56,35157234;37,52166017;0,46000001;
21:04:50:346;3,7663;-1,0956;-3,2996;56,35157234;37,52166017;0,46000001;
21:04:50:348;0,7668;-0,5753;-7,4192;56,35157234;37,52166017;0,46000001;
21:04:50:404;0,7668;-0,5753;-7,4192;56,35157234;37,52166017;0,46000001;
21:04:50:409;0,7668;-0,5753;-7,4192;56,35157234;37,52166017;0,46000001;
21:04:50:412;-3,9377;0,3689;-4,6905;56,35157234;37,52166017;0,46000001;
21:04:50:463;-3,9377;0,3689;-4,6905;56,35157234;37,52166017;0,46000001;
21:04:50:466;-3,9377;0,3689;-4,6905;56,35157234;37,52166017;0,46000001;
21:04:50:472;-2,7908;-0,4928;-0,1696;56,35157234;37,52166017;0,46000001;
21:04:50:524;-2,7908;-0,4928;-0,1696;56,35157234;37,52166017;0,46000001;
21:04:50:526;-2,7908;-0,4928;-0,1696;56,35157234;37,52166017;0,46000001;
21:04:50:528;-1,8914;0,6486;3,2599;56,35157234;37,52166017;0,46000001;
21:04:50:584;-1,8914;0,6486;3,2599;56,35157234;37,52166017;0,46000001;
21:04:50:586;-1,8914;0,6486;3,2599;56,35157234;37,52166017;0,46000001;
21:04:50:587;-1,6816;-0,4897;3,9808;56,35157234;37,52166017;0,46000001;
21:04:50:645;-1,6816;-0,4897;3,9808;56,35157234;37,52166017;0,46000001;
21:04:50:646;-1,6816;-0,4897;3,9808;56,35157234;37,52166017;0,46000001;
21:04:50:647;0,6758;-0,2806;3,6725;56,35157234;37,52166017;0,46000001;
21:04:50:665;0,6758;-0,2806;3,6725;56,35157234;37,52166017;0,46000001;
21:04:50:724;0,6758;-0,2806;3,6725;56,35157234;37,52166017;0,46000001;
21:04:50:728;0,6758;-0,2806;3,6725;56,35157234;37,52166017;0,46000001;
21:04:50:730;-0,8650;-1,6003;2,3999;56,35157234;37,52166017;0,46000001;
21:04:50:785;-0,8650;-1,6003;2,3999;56,35157234;37,52166017;0,46000001;
21:04:50:788;-0,8650;-1,6003;2,3999;56,35157234;37,52166017;0,46000001;
21:04:50:790;-1,6704;-1,0663;2,1965;56,35157234;37,52166017;0,46000001;
21:04:50:857;-1,6704;-1,0663;2,1965;56,35157234;37,52166017;0,46000001;
21:04:50:859;-1,6704;-1,0663;2,1965;56,35157234;37,52166017;0,46000001;
21:04:50:861;-1,9659;-1,4980;-0,1811;56,35157234;37,52166017;0,46000001;
21:04:50:917;-1,9659;-1,4980;-0,1811;56,35157234;37,52166017;0,46000001;
21:04:50:920;-1,9659;-1,4980;-0,1811;56,35157234;37,52166017;0,46000001;
21:04:50:922;-0,2315;-1,5317;-1,7441;56,35157234;37,52166017;0,46000001;
21:04:50:977;-0,2315;-1,5317;-1,7441;56,35157234;37,52166017;0,46000001;
21:04:50:979;-0,2315;-1,5317;-1,7441;56,35157234;37,52166017;0,46000001;
21:04:50:981;0,0891;-1,1055;0,0213;56,35157234;37,52166017;0,46000001;
21:04:51:046;0,0891;-1,1055;0,0213;56,35157234;37,52166017;0,46000001;
21:04:51:050;0,0891;-1,1055;0,0213;56,35157234;37,52166017;0,46000001;
21:04:51:053;0,2972;-0,6488;1,9278;56,35157234;37,52166017;0,46000001;
21:04:51:097;0,2972;-0,6488;1,9278;56,35157234;37,52166017;0,46000001;
21:04:51:100;0,2972;-0,6488;1,9278;56,35157234;37,52166017;0,46000001;
21:04:51:102;-0,2485;-0,6757;1,5139;56,35157234;37,52166017;0,46000001;
21:04:51:158;-0,2485;-0,6757;1,5139;56,35157234;37,52166017;0,46000001;
21:04:51:161;-0,2485;-0,6757;1,5139;56,35157234;37,52166017;0,46000001;
21:04:51:163;0,1331;-0,8280;-0,6446;56,35157234;37,52166017;0,46000001;
21:04:51:238;0,1331;-0,8280;-0,6446;56,35157234;37,52166017;0,46000001;
21:04:51:240;0,1331;-0,8280;-0,6446;56,35157234;37,52166017;0,46000001;
21:04:51:242;0,1044;-0,2562;-0,6896;56,35157234;37,52166017;0,46000001;
21:04:51:298;0,1044;-0,2562;-0,6896;56,35157234;37,52166017;0,46000001;
21:04:51:301;0,1044;-0,2562;-0,6896;56,35157234;37,52166017;0,46000001;
21:04:51:303;-0,1110;-0,3141;2,1031;56,35157234;37,52166017;0,46000001;
21:04:51:315;-0,1110;-0,3141;2,1031;56,35157234;37,52166017;0,46000001;
21:04:51:317;-0,1980;-0,3289;2,0674;56,35157234;37,52166017;0,46000001;
21:04:51:369;-0,1980;-0,3289;2,0674;56,35157234;37,52166017;0,46000001;
21:04:51:371;-0,1980;-0,3289;2,0674;56,35157234;37,52166017;0,46000001;
21:04:51:376;0,0449;-0,4933;0,0590;56,35157234;37,52166017;0,46000001;
21:04:51:429;0,0449;-0,4933;0,0590;56,35157234;37,52166017;0,46000001;
21:04:51:432;0,0449;-0,4933;0,0590;56,35157234;37,52166017;0,46000001;
21:04:51:434;-0,0288;-0,6039;0,2614;56,35157234;37,52166017;0,46000001;
21:04:51:499;-0,0288;-0,6039;0,2614;56,35157234;37,52166017;0,46000001;
21:04:51:501;-0,0288;-0,6039;0,2614;56,35157234;37,52166017;0,46000001;
21:04:51:502;-0,2287;-0,1818;0,1870;56,35157234;37,52166017;0,46000001;
21:04:51:560;-0,2287;-0,1818;0,1870;56,35157234;37,52166017;0,46000001;
21:04:51:562;-0,3271;-0,1106;0,2353;56,35157234;37,52166017;0,46000001;
21:04:51:565;-0,3271;-0,1106;0,2353;56,35157234;37,52166017;0,46000001;
21:04:51:620;-0,3271;-0,1106;0,2353;56,35157234;37,52166017;0,46000001;
21:04:51:623;-0,3271;-0,1106;0,2353;56,35157234;37,52166017;0,46000001;
21:04:51:626;-0,6108;-0,0404;0,2384;56,35157234;37,52166017;0,46000001;
21:04:51:680;-0,6108;-0,0404;0,2384;56,35157234;37,52166017;0,46000001;
21:04:51:682;-0,6108;-0,0404;0,2384;56,35157234;37,52166017;0,46000001;
21:04:51:686;-0,5154;-0,5649;0,1799;56,35157234;37,52166017;0,46000001;
21:04:51:706;-0,5154;-0,5649;0,1799;56,35157234;37,52166017;0,46000001;
21:04:51:761;-0,5154;-0,5649;0,1799;56,35152407;37,52179642;0,00000000;
21:04:51:765;-0,5154;-0,5649;0,1799;56,35152407;37,52179642;0,00000000;
21:04:51:766;0,0267;-0,2304;0,2022;56,35152407;37,52179642;0,00000000;
21:04:51:820;0,0267;-0,2304;0,2022;56,35152407;37,52179642;0,00000000;
21:04:51:822;0,0267;-0,2304;0,2022;56,35152407;37,52179642;0,00000000;
21:04:51:825;0,0197;-0,2215;0,1950;56,35152407;37,52179642;0,00000000;
21:04:51:881;0,0197;-0,2215;0,1950;56,35152407;37,52179642;0,00000000;
21:04:51:884;0,0197;-0,2215;0,1950;56,35152407;37,52179642;0,00000000;
21:04:51:885;0,0099;-0,2205;0,1968;56,35152407;37,52179642;0,00000000;
21:04:51:941;0,0099;-0,2205;0,1968;56,35152407;37,52179642;0,00000000;
21:04:51:944;0,0099;-0,2205;0,1968;56,35152407;37,52179642;0,00000000;
21:04:51:947;0,0105;-0,2243;0,1771;56,35152407;37,52179642;0,00000000;
21:04:52:022;0,0105;-0,2243;0,1771;56,35152407;37,52179642;0,00000000;
21:04:52:025;0,0105;-0,2243;0,1771;56,35152407;37,52179642;0,00000000;
21:04:52:028;0,0219;-0,1963;0,1554;56,35152407;37,52179642;0,00000000;
21:04:52:081;0,0219;-0,1963;0,1554;56,35152407;37,52179642;0,00000000;
21:04:52:084;0,0219;-0,1963;0,1554;56,35152407;37,52179642;0,00000000;
21:04:52:087;-0,0130;-0,1572;0,1633;56,35152407;37,52179642;0,00000000;
21:04:52:142;-0,0130;-0,1572;0,1633;56,35152407;37,52179642;0,00000000;
21:04:52:147;-0,0130;-0,1572;0,1633;56,35152407;37,52179642;0,00000000;
21:04:52:149;0,0112;-0,1655;0,1441;56,35152407;37,52179642;0,00000000;
21:04:52:203;0,0112;-0,1655;0,1441;56,35152407;37,52179642;0,00000000;
21:04:52:206;0,0112;-0,1655;0,1441;56,35152407;37,52179642;0,00000000;
21:04:52:209;-0,0041;-0,1451;0,0977;56,35152407;37,52179642;0,00000000;
21:04:52:224;-0,0041;-0,1451;0,0977;56,35152407;37,52179642;0,00000000;
21:04:52:229;-0,0051;-0,1295;0,0869;56,35152407;37,52179642;0,00000000;
21:04:52:287;-0,0051;-0,1295;0,0869;56,35152407;37,52179642;0,00000000;
21:04:52:290;-0,0051;-0,1295;0,0869;56,35152407;37,52179642;0,00000000;
21:04:52:292;0,0269;-0,0997;0,0795;56,35152407;37,52179642;0,00000000;
21:04:52:344;0,0269;-0,0997;0,0795;56,35152407;37,52179642;0,00000000;
21:04:52:347;0,0269;-0,0997;0,0795;56,35152407;37,52179642;0,00000000;
21:04:52:349;-0,0016;-0,0929;0,0919;56,35152407;37,52179642;0,00000000;
21:04:52:404;-0,0016;-0,0929;0,0919;56,35152407;37,52179642;0,00000000;
21:04:52:408;-0,0016;-0,0929;0,0919;56,35152407;37,52179642;0,00000000;
21:04:52:410;-0,0183;-0,1012;0,0598;56,35152407;37,52179642;0,00000000;
21:04:52:465;-0,0183;-0,1012;0,0598;56,35152407;37,52179642;0,00000000;
21:04:52:467;-0,0183;-0,1012;0,0598;56,35152407;37,52179642;0,00000000;
21:04:52:469;-0,0018;-0,0827;0,0801;56,35152407;37,52179642;0,00000000;
21:04:52:487;-0,0018;-0,0827;0,0801;56,35152407;37,52179642;0,00000000;
21:04:52:545;-0,0018;-0,0827;0,0801;56,35152407;37,52179642;0,00000000;
21:04:52:548;-0,0018;-0,0827;0,0801;56,35152407;37,52179642;0,00000000;
21:04:52:550;-0,0034;-0,0548;0,0600;56,35152407;37,52179642;0,00000000;
21:04:52:606;-0,0034;-0,0548;0,0600;56,35152407;37,52179642;0,00000000;
21:04:52:610;0,0022;-0,0808;0,0598;56,35152407;37,52179642;0,00000000;
21:04:52:612;0,0022;-0,0808;0,0598;56,35152407;37,52179642;0,00000000;
21:04:52:665;0,0022;-0,0808;0,0598;56,35152407;37,52179642;0,00000000;
21:04:52:671;0,0022;-0,0808;0,0598;56,35152407;37,52179642;0,00000000;
21:04:52:681;0,0111;-0,0663;0,0315;56,35152407;37,52179642;0,00000000;
21:04:52:725;0,0111;-0,0663;0,0315;56,35152407;37,52179642;0,00000000;
21:04:52:728;0,0111;-0,0663;0,0315;56,35155359;37,52167973;0,00000000;
21:04:52:731;-0,0154;-0,0466;0,0543;56,35155359;37,52167973;0,00000000;
21:04:52:806;-0,0154;-0,0466;0,0543;56,35155359;37,52167973;0,00000000;
21:04:52:810;-0,0154;-0,0466;0,0543;56,35155359;37,52167973;0,00000000;
21:04:52:812;-0,0229;-0,0377;0,0363;56,35155359;37,52167973;0,00000000;
21:04:52:867;-0,0229;-0,0377;0,0363;56,35155359;37,52167973;0,00000000;
21:04:52:870;-0,0229;-0,0377;0,0363;56,35155359;37,52167973;0,00000000;
21:04:52:872;-0,0095;-0,0562;0,0316;56,35155359;37,52167973;0,00000000;
21:04:52:926;-0,0095;-0,0562;0,0316;56,35155359;37,52167973;0,00000000;
21:04:52:929;-0,0095;-0,0562;0,0316;56,35155359;37,52167973;0,00000000;
21:04:52:932;0,0201;-0,0417;0,0285;56,35155359;37,52167973;0,00000000;
21:04:52:988;0,0201;-0,0417;0,0285;56,35155359;37,52167973;0,00000000;
21:04:52:992;-0,0147;-0,0221;0,0492;56,35155359;37,52167973;0,00000000;
21:04:52:996;-0,0147;-0,0221;0,0492;56,35155359;37,52167973;0,00000000;
21:04:53:009;-0,0147;-0,0221;0,0492;56,35155359;37,52167973;0,00000000;
21:04:53:012;-0,0138;-0,0199;0,0437;56,35155359;37,52167973;0,00000000;
21:04:53:068;-0,0138;-0,0199;0,0437;56,35155359;37,52167973;0,00000000;
21:04:53:070;-0,0138;-0,0199;0,0437;56,35155359;37,52167973;0,00000000;
21:04:53:072;-0,0110;-0,0337;0,0138;56,35155359;37,52167973;0,00000000;
21:04:53:127;-0,0110;-0,0337;0,0138;56,35155359;37,52167973;0,00000000;
21:04:53:130;-0,0110;-0,0337;0,0138;56,35155359;37,52167973;0,00000000;
21:04:53:132;-0,0166;-0,0317;0,0137;56,35155359;37,52167973;0,00000000;
21:04:53:189;-0,0166;-0,0317;0,0137;56,35155359;37,52167973;0,00000000;
21:04:53:192;-0,0166;-0,0317;0,0137;56,35155359;37,52167973;0,00000000;
21:04:53:195;-0,0055;-0,0153;0,0186;56,35155359;37,52167973;0,00000000;
21:04:53:248;-0,0055;-0,0153;0,0186;56,35155359;37,52167973;0,00000000;
21:04:53:252;-0,0055;-0,0153;0,0186;56,35155359;37,52167973;0,00000000;
21:04:53:254;-0,0098;-0,0009;0,0166;56,35155359;37,52167973;0,00000000;
21:04:53:270;-0,0098;-0,0009;0,0166;56,35155359;37,52167973;0,00000000;
21:04:53:329;-0,0098;-0,0009;0,0166;56,35155359;37,52167973;0,00000000;
21:04:53:332;0,0075;-0,0260;0,0028;56,35155359;37,52167973;0,00000000;
21:04:53:335;0,0075;-0,0260;0,0028;56,35155359;37,52167973;0,00000000;
21:04:53:389;0,0075;-0,0260;0,0028;56,35155359;37,52167973;0,00000000;
21:04:53:392;0,0075;-0,0260;0,0028;56,35155359;37,52167973;0,00000000;
21:04:53:395;-0,0163;0,0061;0,0246;56,35155359;37,52167973;0,00000000;
21:04:53:450;-0,0163;0,0061;0,0246;56,35155359;37,52167973;0,00000000;
21:04:53:453;-0,0163;0,0061;0,0246;56,35155359;37,52167973;0,00000000;
21:04:53:456;-0,0243;-0,0157;0,0074;56,35155359;37,52167973;0,00000000;
21:04:53:509;-0,0243;-0,0157;0,0074;56,35155359;37,52167973;0,00000000;
21:04:53:512;-0,0243;-0,0157;0,0074;56,35155359;37,52167973;0,00000000;
21:04:53:515;-0,0156;-0,0346;0,0108;56,35155359;37,52167973;0,00000000;
21:04:53:590;-0,0156;-0,0346;0,0108;56,35155359;37,52167973;0,00000000;
21:04:53:593;-0,0156;-0,0346;0,0108;56,35155359;37,52167973;0,00000000;
21:04:53:595;0,0037;-0,0086;0,0033;56,35155359;37,52167973;0,00000000;
21:04:53:650;0,0037;-0,0086;0,0033;56,35155359;37,52167973;0,00000000;
21:04:53:653;0,0037;-0,0086;0,0033;56,35155359;37,52167973;0,00000000;
21:04:53:655;-0,0080;0,0006;0,0136;56,35155359;37,52167973;0,00000000;
21:04:53:710;-0,0080;0,0006;0,0136;56,35155359;37,52167973;0,00000000;
21:04:53:713;-0,0080;0,0006;0,0136;56,35157148;37,52163695;0,00000000;
21:04:53:716;-0,0230;-0,0189;0,0007;56,35157148;37,52163695;0,00000000;
21:04:53:770;-0,0230;-0,0189;0,0007;56,35157148;37,52163695;0,00000000;
21:04:53:772;-0,0230;-0,0189;0,0007;56,35157148;37,52163695;0,00000000;
21:04:53:775;-0,0015;-0,0175;0,0118;56,35157148;37,52163695;0,00000000;
21:04:53:792;-0,0015;-0,0175;0,0118;56,35157148;37,52163695;0,00000000;
21:04:53:795;-0,0029;-0,0153;0,0107;56,35157148;37,52163695;0,00000000;
21:04:53:852;-0,0029;-0,0153;0,0107;56,35157148;37,52163695;0,00000000;
21:04:53:855;-0,0029;-0,0153;0,0107;56,35157148;37,52163695;0,00000000;
21:04:53:857;-0,0126;-0,0028;0,0014;56,35157148;37,52163695;0,00000000;
21:04:53:912;-0,0126;-0,0028;0,0014;56,35157148;37,52163695;0,00000000;
21:04:53:915;-0,0126;-0,0028;0,0014;56,35157148;37,52163695;0,00000000;
21:04:53:917;-0,0137;-0,0011;-0,0038;56,35157148;37,52163695;0,00000000;
21:04:53:972;-0,0137;-0,0011;-0,0038;56,35157148;37,52163695;0,00000000;
21:04:53:974;-0,0137;-0,0011;-0,0038;56,35157148;37,52163695;0,00000000;
21:04:53:976;-0,0145;-0,0114;0,0126;56,35157148;37,52163695;0,00000000;
21:04:54:032;-0,0145;-0,0114;0,0126;56,35157148;37,52163695;0,00000000;
21:04:54:035;-0,0145;-0,0114;0,0126;56,35157148;37,52163695;0,00000000;
21:04:54:038;-0,0162;-0,0088;-0,0071;56,35157148;37,52163695;0,00000000;
21:04:54:055;-0,0162;-0,0088;-0,0071;56,35157148;37,52163695;0,00000000;
21:04:54:112;-0,0162;-0,0088;-0,0071;56,35157148;37,52163695;0,00000000;
21:04:54:115;-0,0027;-0,0067;-0,0094;56,35157148;37,52163695;0,00000000;
21:04:54:118;-0,0027;-0,0067;-0,0094;56,35157148;37,52163695;0,00000000;
21:04:54:173;-0,0027;-0,0067;-0,0094;56,35157148;37,52163695;0,00000000;
21:04:54:176;-0,0027;-0,0067;-0,0094;56,35157148;37,52163695;0,00000000;
21:04:54:178;-0,0061;-0,0180;0,0009;56,35157148;37,52163695;0,00000000;
21:04:54:234;-0,0061;-0,0180;0,0009;56,35157148;37,52163695;0,00000000;
21:04:54:237;-0,0061;-0,0180;0,0009;56,35157148;37,52163695;0,00000000;
21:04:54:239;-0,0119;0,0005;-0,0179;56,35157148;37,52163695;0,00000000;
21:04:54:295;-0,0119;0,0005;-0,0179;56,35157148;37,52163695;0,00000000;
21:04:54:298;-0,0245;0,0088;0,0150;56,35157148;37,52163695;0,00000000;
21:04:54:301;-0,0245;0,0088;0,0150;56,35157148;37,52163695;0,00000000;
21:04:54:374;-0,0245;0,0088;0,0150;56,35157148;37,52163695;0,00000000;
21:04:54:376;-0,0245;0,0088;0,0150;56,35157148;37,52163695;0,00000000;
21:04:54:377;-0,0218;-0,0145;0,0020;56,35157148;37,52163695;0,00000000;
21:04:54:434;-0,0218;-0,0145;0,0020;56,35157148;37,52163695;0,00000000;
21:04:54:437;-0,0218;-0,0145;0,0020;56,35157148;37,52163695;0,00000000;
21:04:54:439;0,0044;-0,0128;0,0033;56,35157148;37,52163695;0,00000000;
21:04:54:495;0,0044;-0,0128;0,0033;56,35157148;37,52163695;0,00000000;
21:04:54:497;0,0044;-0,0128;0,0033;56,35157148;37,52163695;0,00000000;
21:04:54:499;-0,0022;-0,0006;-0,0017;56,35157148;37,52163695;0,00000000;
21:04:54:556;-0,0022;-0,0006;-0,0017;56,35157148;37,52163695;0,00000000;
21:04:54:559;-0,0022;-0,0006;-0,0017;56,35157148;37,52163695;0,00000000;
21:04:54:561;-0,0230;0,0058;0,0013;56,35157148;37,52163695;0,00000000;
21:04:54:578;-0,0230;0,0058;0,0013;56,35157148;37,52163695;0,00000000;
21:04:54:582;-0,0213;0,0051;0,0013;56,35157148;37,52163695;0,00000000;
21:04:54:636;-0,0213;0,0051;0,0013;56,35157148;37,52163695;0,00000000;
21:04:54:639;-0,0213;0,0051;0,0013;56,35157148;37,52163695;0,00000000;
21:04:54:641;-0,0149;-0,0152;0,0247;56,35157148;37,52163695;0,00000000;
21:04:54:695;-0,0149;-0,0152;0,0247;56,35157148;37,52163695;0,00000000;
21:04:54:697;-0,0149;-0,0152;0,0247;56,35157121;37,52161136;0,00000000;
21:04:54:700;-0,0047;-0,0079;-0,0013;56,35157121;37,52161136;0,00000000;
21:04:54:755;-0,0047;-0,0079;-0,0013;56,35157121;37,52161136;0,00000000;
21:04:54:757;-0,0047;-0,0079;-0,0013;56,35157121;37,52161136;0,00000000;
21:04:54:758;-0,0187;-0,0020;0,0084;56,35157121;37,52161136;0,00000000;
21:04:54:816;-0,0187;-0,0020;0,0084;56,35157121;37,52161136;0,00000000;
21:04:54:818;-0,0187;-0,0020;0,0084;56,35157121;37,52161136;0,00000000;
21:04:54:820;-0,0062;-0,0067;-0,0142;56,35157121;37,52161136;0,00000000;
21:04:54:839;-0,0062;-0,0067;-0,0142;56,35157121;37,52161136;0,00000000;
21:04:54:897;-0,0062;-0,0067;-0,0142;56,35157121;37,52161136;0,00000000;
21:04:54:900;-0,0062;-0,0067;-0,0142;56,35157121;37,52161136;0,00000000;
21:04:54:902;0,0067;0,0041;0,0037;56,35157121;37,52161136;0,00000000;
21:04:54:957;0,0067;0,0041;0,0037;56,35157121;37,52161136;0,00000000;
21:04:54:960;0,0067;0,0041;0,0037;56,35157121;37,52161136;0,00000000;
21:04:54:962;-0,0220;0,0046;0,0058;56,35157121;37,52161136;0,00000000;
21:04:55:019;-0,0220;0,0046;0,0058;56,35157121;37,52161136;0,00000000;
21:04:55:021;-0,0220;0,0046;0,0058;56,35157121;37,52161136;0,00000000;
21:04:55:023;-0,0198;-0,0079;-0,0288;56,35157121;37,52161136;0,00000000;
21:04:55:078;-0,0198;-0,0079;-0,0288;56,35157121;37,52161136;0,00000000;
21:04:55:081;-0,0198;-0,0079;-0,0288;56,35157121;37,52161136;0,00000000;
21:04:55:083;0,0022;-0,0091;0,0180;56,35157121;37,52161136;0,00000000;
21:04:55:158;0,0022;-0,0091;0,0180;56,35157121;37,52161136;0,00000000;
21:04:55:161;0,0022;-0,0091;0,0180;56,35157121;37,52161136;0,00000000;
21:04:55:163;0,0039;-0,0045;0,0139;56,35157121;37,52161136;0,00000000;
21:04:55:218;0,0039;-0,0045;0,0139;56,35157121;37,52161136;0,00000000;
21:04:55:221;0,0039;-0,0045;0,0139;56,35157121;37,52161136;0,00000000;
21:04:55:225;-0,0215;0,0033;0,0031;56,35157121;37,52161136;0,00000000;
21:04:55:278;-0,0215;0,0033;0,0031;56,35157121;37,52161136;0,00000000;
21:04:55:281;-0,0215;0,0033;0,0031;56,35157121;37,52161136;0,00000000;
21:04:55:283;-0,0099;-0,0116;-0,0089;56,35157121;37,52161136;0,00000000;
21:04:55:340;-0,0099;-0,0116;-0,0089;56,35157121;37,52161136;0,00000000;
21:04:55:342;-0,0099;-0,0116;-0,0089;56,35157121;37,52161136;0,00000000;
21:04:55:345;-0,0055;-0,0102;0,0000;56,35157121;37,52161136;0,00000000;
21:04:55:367;-0,0055;-0,0102;0,0000;56,35157121;37,52161136;0,00000000;
21:04:55:369;-0,0064;-0,0094;0,0001;56,35157121;37,52161136;0,00000000;
21:04:55:420;-0,0064;-0,0094;0,0001;56,35157121;37,52161136;0,00000000;
21:04:55:422;-0,0064;-0,0094;0,0001;56,35157121;37,52161136;0,00000000;
21:04:55:425;-0,0136;0,0143;0,0243;56,35157121;37,52161136;0,00000000;
21:04:55:480;-0,0136;0,0143;0,0243;56,35157121;37,52161136;0,00000000;
21:04:55:483;-0,0136;0,0143;0,0243;56,35157121;37,52161136;0,00000000;
21:04:55:485;-0,0226;0,0062;-0,0021;56,35157121;37,52161136;0,00000000;
21:04:55:540;-0,0226;0,0062;-0,0021;56,35157121;37,52161136;0,00000000;
21:04:55:543;-0,0226;0,0062;-0,0021;56,35157121;37,52161136;0,00000000;
21:04:55:545;-0,0091;-0,0180;-0,0156;56,35157121;37,52161136;0,00000000;
21:04:55:600;-0,0091;-0,0180;-0,0156;56,35157121;37,52161136;0,00000000;
21:04:55:602;-0,0091;-0,0180;-0,0156;56,35157121;37,52161136;0,00000000;
21:04:55:604;0,0022;-0,0104;0,0024;56,35157121;37,52161136;0,00000000;
21:04:55:625;0,0022;-0,0104;0,0024;56,35157121;37,52161136;0,00000000;
21:04:55:681;0,0022;-0,0104;0,0024;56,35157121;37,52161136;0,00000000;
21:04:55:683;0,0022;-0,0104;0,0024;56,35157121;37,52161136;0,00000000;
21:04:55:685;-0,0240;0,0004;-0,0144;56,35157121;37,52161136;0,00000000;
21:04:55:740;-0,0240;0,0004;-0,0144;56,35157121;37,52161136;0,00000000;
21:04:55:742;-0,0240;0,0004;-0,0144;56,35157121;37,52161136;0,00000000;
21:04:55:744;-0,0110;-0,0060;-0,0014;56,35157121;37,52161136;0,00000000;
21:04:55:801;-0,0110;-0,0060;-0,0014;56,35157121;37,52161136;0,00000000;
21:04:55:803;-0,0110;-0,0060;-0,0014;56,35157121;37,52161136;0,00000000;
21:04:55:805;0,0044;0,0003;-0,0044;56,35157121;37,52161136;0,00000000;
21:04:55:861;0,0044;0,0003;-0,0044;56,35157121;37,52161136;0,00000000;
21:04:55:865;-0,0217;0,0124;0,0200;56,35157121;37,52161136;0,00000000;
21:04:55:867;-0,0217;0,0124;0,0200;56,35157121;37,52161136;0,00000000;
21:04:55:942;-0,0217;0,0124;0,0200;56,35157121;37,52161136;0,00000000;
21:04:55:945;-0,0217;0,0124;0,0200;56,35157121;37,52161136;0,00000000;
21:04:55:946;-0,0208;-0,0072;-0,0050;56,35157121;37,52161136;0,00000000;
21:04:56:003;-0,0208;-0,0072;-0,0050;56,35157121;37,52161136;0,00000000;
21:04:56:006;-0,0208;-0,0072;-0,0050;56,35157121;37,52161136;0,00000000;
21:04:56:008;-0,0119;-0,0060;-0,0075;56,35157121;37,52161136;0,00000000;
21:04:56:063;-0,0119;-0,0060;-0,0075;56,35157121;37,52161136;0,00000000;
21:04:56:067;-0,0119;-0,0060;-0,0075;56,35157121;37,52161136;0,00000000;
21:04:56:069;-0,0065;0,0137;0,0065;56,35157121;37,52161136;0,00000000;
21:04:56:124;-0,0065;0,0137;0,0065;56,35157121;37,52161136;0,00000000;
21:04:56:127;-0,0065;0,0137;0,0065;56,35157121;37,52161136;0,00000000;
21:04:56:129;-0,0182;0,0046;0,0164;56,35157121;37,52161136;0,00000000;
21:04:56:153;-0,0182;0,0046;0,0164;56,35157121;37,52161136;0,00000000;
21:04:56:157;-0,0173;0,0038;0,0147;56,35157121;37,52161136;0,00000000;
21:04:56:204;-0,0173;0,0038;0,0147;56,35157121;37,52161136;0,00000000;
21:04:56:206;-0,0173;0,0038;0,0147;56,35157121;37,52161136;0,00000000;
21:04:56:208;-0,0105;-0,0207;-0,0157;56,35157121;37,52161136;0,00000000;
21:04:56:264;-0,0105;-0,0207;-0,0157;56,35157121;37,52161136;0,00000000;
21:04:56:267;-0,0105;-0,0207;-0,0157;56,35157121;37,52161136;0,00000000;
21:04:56:269;0,0079;-0,0023;-0,0053;56,35157121;37,52161136;0,00000000;
21:04:56:324;0,0079;-0,0023;-0,0053;56,35157121;37,52161136;0,00000000;
21:04:56:328;0,0079;-0,0023;-0,0053;56,35157121;37,52161136;0,00000000;
21:04:56:330;-0,0171;-0,0015;0,0184;56,35157121;37,52161136;0,00000000;
21:04:56:385;-0,0171;-0,0015;0,0184;56,35157121;37,52161136;0,00000000;
21:04:56:387;-0,0171;-0,0015;0,0184;56,35157121;37,52161136;0,00000000;
21:04:56:389;-0,0198;-0,0115;-0,0085;56,35157121;37,52161136;0,00000000;
21:04:56:408;-0,0198;-0,0115;-0,0085;56,35157121;37,52161136;0,00000000;
21:04:56:465;-0,0198;-0,0115;-0,0085;56,35157121;37,52161136;0,00000000;
21:04:56:468;-0,0198;-0,0115;-0,0085;56,35157121;37,52161136;0,00000000;
21:04:56:470;0,0102;-0,0082;-0,0075;56,35157121;37,52161136;0,00000000;
21:04:56:526;0,0102;-0,0082;-0,0075;56,35157121;37,52161136;0,00000000;
21:04:56:528;0,0102;-0,0082;-0,0075;56,35157121;37,52161136;0,00000000;
21:04:56:530;-0,0078;0,0031;0,0104;56,35157121;37,52161136;0,00000000;
21:04:56:585;-0,0078;0,0031;0,0104;56,35157121;37,52161136;0,00000000;
21:04:56:588;-0,0078;0,0031;0,0104;56,35157121;37,52161136;0,00000000;
21:04:56:591;-0,0224;0,0009;-0,0077;56,35157121;37,52161136;0,00000000;
21:04:56:646;-0,0224;0,0009;-0,0077;56,35157121;37,52161136;0,00000000;
21:04:56:649;-0,0224;0,0009;-0,0077;56,35157121;37,52161136;0,00000000;
21:04:56:651;-0,0096;-0,0087;0,0144;56,35157121;37,52161136;0,00000000;
21:04:56:726;-0,0096;-0,0087;0,0144;56,35157121;37,52161136;0,00000000;
21:04:56:729;-0,0096;-0,0087;0,0144;56,35157863;37,52157127;0,00000000;
21:04:56:732;-0,0018;0,0019;-0,0094;56,35157863;37,52157127;0,00000000;
21:04:56:786;-0,0018;0,0019;-0,0094;56,35157863;37,52157127;0,00000000;
21:04:56:788;-0,0018;0,0019;-0,0094;56,35157863;37,52157127;0,00000000;
21:04:56:789;-0,0233;0,0055;0,0060;56,35157863;37,52157127;0,00000000;
21:04:56:846;-0,0233;0,0055;0,0060;56,35157863;37,52157127;0,00000000;
21:04:56:848;-0,0233;0,0055;0,0060;56,35157863;37,52157127;0,00000000;
21:04:56:850;-0,0186;-0,0138;-0,0056;56,35157863;37,52157127;0,00000000;
21:04:56:907;-0,0186;-0,0138;-0,0056;56,35157863;37,52157127;0,00000000;
21:04:56:910;-0,0186;-0,0138;-0,0056;56,35157863;37,52157127;0,00000000;
21:04:56:912;0,0142;-0,0086;0,0096;56,35157863;37,52157127;0,00000000;
21:04:56:933;0,0142;-0,0086;0,0096;56,35157863;37,52157127;0,00000000;
21:04:56:935;0,0124;-0,0075;0,0086;56,35157863;37,52157127;0,00000000;
21:04:56:988;0,0124;-0,0075;0,0086;56,35157863;37,52157127;0,00000000;
21:04:56:990;0,0124;-0,0075;0,0086;56,35157863;37,52157127;0,00000000;
21:04:56:992;0,0004;0,0028;0,0169;56,35157863;37,52157127;0,00000000;
21:04:57:048;0,0004;0,0028;0,0169;56,35157863;37,52157127;0,00000000;
21:04:57:051;0,0004;0,0028;0,0169;56,35157863;37,52157127;0,00000000;
21:04:57:053;-0,0271;0,0010;-0,0155;56,35157863;37,52157127;0,00000000;
21:04:57:107;-0,0271;0,0010;-0,0155;56,35157863;37,52157127;0,00000000;
21:04:57:110;-0,0271;0,0010;-0,0155;56,35157863;37,52157127;0,00000000;
21:04:57:112;-0,0263;-0,0197;-0,0091;56,35157863;37,52157127;0,00000000;
21:04:57:168;-0,0263;-0,0197;-0,0091;56,35157863;37,52157127;0,00000000;
21:04:57:171;-0,0263;-0,0197;-0,0091;56,35157863;37,52157127;0,00000000;
21:04:57:173;-0,0060;-0,0028;0,0062;56,35157863;37,52157127;0,00000000;
21:04:57:194;-0,0060;-0,0028;0,0062;56,35157863;37,52157127;0,00000000;
21:04:57:248;-0,0060;-0,0028;0,0062;56,35157863;37,52157127;0,00000000;
21:04:57:264;-0,0060;-0,0028;0,0062;56,35157863;37,52157127;0,00000000;
21:04:57:268;-0,0046;0,0049;-0,0148;56,35157863;37,52157127;0,00000000;
21:04:57:309;-0,0046;0,0049;-0,0148;56,35157863;37,52157127;0,00000000;
21:04:57:312;-0,0046;0,0049;-0,0148;56,35157863;37,52157127;0,00000000;
21:04:57:314;0,0053;-0,0117;-0,0021;56,35157863;37,52157127;0,00000000;
21:04:57:370;0,0053;-0,0117;-0,0021;56,35157863;37,52157127;0,00000000;
21:04:57:373;0,0053;-0,0117;-0,0021;56,35157863;37,52157127;0,00000000;
21:04:57:375;0,0078;0,0071;0,0140;56,35157863;37,52157127;0,00000000;
21:04:57:430;0,0078;0,0071;0,0140;56,35157863;37,52157127;0,00000000;
21:04:57:433;0,0078;0,0071;0,0140;56,35157863;37,52157127;0,00000000;
21:04:57:436;-0,0211;0,0104;0,0132;56,35157863;37,52157127;0,00000000;
21:04:57:510;-0,0211;0,0104;0,0132;56,35157863;37,52157127;0,00000000;
21:04:57:514;-0,0211;0,0104;0,0132;56,35157863;37,52157127;0,00000000;
21:04:57:516;-0,0186;-0,0000;-0,0152;56,35157863;37,52157127;0,00000000;
21:04:57:571;-0,0186;-0,0000;-0,0152;56,35157863;37,52157127;0,00000000;
21:04:57:574;-0,0186;-0,0000;-0,0152;56,35157863;37,52157127;0,00000000;
21:04:57:577;0,0132;-0,0076;-0,0000;56,35157863;37,52157127;0,00000000;
21:04:57:630;0,0132;-0,0076;-0,0000;56,35157863;37,52157127;0,00000000;
21:04:57:634;0,0132;-0,0076;-0,0000;56,35157863;37,52157127;0,00000000;
21:04:57:635;0,0165;-0,0017;0,0049;56,35157863;37,52157127;0,00000000;
21:04:57:700;0,0165;-0,0017;0,0049;56,35157863;37,52157127;0,00000000;
21:04:57:702;0,0165;-0,0017;0,0049;56,35158459;37,52155257;0,00000000;
21:04:57:705;-0,0085;0,0117;0,0085;56,35158459;37,52155257;0,00000000;
21:04:57:716;-0,0085;0,0117;0,0085;56,35158459;37,52155257;0,00000000;
21:04:57:720;-0,0068;0,0104;0,0075;56,35158459;37,52155257;0,00000000;
21:04:57:771;-0,0068;0,0104;0,0075;56,35158459;37,52155257;0,00000000;
21:04:57:776;-0,0068;0,0104;0,0075;56,35158459;37,52155257;0,00000000;
21:04:57:778;-0,0171;-0,0095;-0,0086;56,35158459;37,52155257;0,00000000;
21:04:57:832;-0,0171;-0,0095;-0,0086;56,35158459;37,52155257;0,00000000;
21:04:57:834;-0,0171;-0,0095;-0,0086;56,35158459;37,52155257;0,00000000;
21:04:57:836;-0,0051;-0,0048;-0,0087;56,35158459;37,52155257;0,00000000;
21:04:57:892;-0,0051;-0,0048;-0,0087;56,35158459;37,52155257;0,00000000;
21:04:57:895;-0,0051;-0,0048;-0,0087;56,35158459;37,52155257;0,00000000;
21:04:57:897;0,0024;0,0042;0,0075;56,35158459;37,52155257;0,00000000;
21:04:57:952;0,0024;0,0042;0,0075;56,35158459;37,52155257;0,00000000;
21:04:57:955;0,0024;0,0042;0,0075;56,35158459;37,52155257;0,00000000;
21:04:57:957;-0,0058;0,0056;-0,0047;56,35158459;37,52155257;0,00000000;
21:04:57:979;-0,0058;0,0056;-0,0047;56,35158459;37,52155257;0,00000000;
21:04:58:033;-0,0058;0,0056;-0,0047;56,35158459;37,52155257;0,00000000;
21:04:58:036;-0,0058;0,0056;-0,0047;56,35158459;37,52155257;0,00000000;
21:04:58:037;0,0190;-0,0038;-0,0057;56,35158459;37,52155257;0,00000000;
21:04:58:093;0,0190;-0,0038;-0,0057;56,35158459;37,52155257;0,00000000;
21:04:58:096;-0,0114;0,0078;0,0190;56,35158459;37,52155257;0,00000000;
21:04:58:097;-0,0114;0,0078;0,0190;56,35158459;37,52155257;0,00000000;
21:04:58:153;-0,0114;0,0078;0,0190;56,35158459;37,52155257;0,00000000;
21:04:58:157;-0,0114;0,0078;0,0190;56,35158459;37,52155257;0,00000000;
21:04:58:159;-0,0184;-0,0070;-0,0204;56,35158459;37,52155257;0,00000000;
21:04:58:214;-0,0184;-0,0070;-0,0204;56,35158459;37,52155257;0,00000000;
21:04:58:217;-0,0184;-0,0070;-0,0204;56,35158459;37,52155257;0,00000000;
21:04:58:219;0,0035;-0,0105;0,0060;56,35158459;37,52155257;0,00000000;
21:04:58:294;0,0035;-0,0105;0,0060;56,35158459;37,52155257;0,00000000;
21:04:58:297;0,0035;-0,0105;0,0060;56,35158459;37,52155257;0,00000000;
21:04:58:299;0,0072;0,0016;-0,0095;56,35158459;37,52155257;0,00000000;
21:04:58:355;0,0072;0,0016;-0,0095;56,35158459;37,52155257;0,00000000;
21:04:58:358;0,0072;0,0016;-0,0095;56,35158459;37,52155257;0,00000000;
21:04:58:361;-0,0053;0,0144;0,0200;56,35158459;37,52155257;0,00000000;
21:04:58:414;-0,0053;0,0144;0,0200;56,35158459;37,52155257;0,00000000;
21:04:58:417;-0,0053;0,0144;0,0200;56,35158459;37,52155257;0,00000000;
21:04:58:419;-0,0042;-0,0173;-0,0156;56,35158459;37,52155257;0,00000000;
21:04:58:475;-0,0042;-0,0173;-0,0156;56,35158459;37,52155257;0,00000000;
21:04:58:478;-0,0042;-0,0173;-0,0156;56,35158459;37,52155257;0,00000000;
21:04:58:481;0,0055;-0,0033;-0,0099;56,35158459;37,52155257;0,00000000;
21:04:58:505;0,0052;-0,0028;-0,0088;56,35158459;37,52155257;0,00000000;
21:04:58:508;0,0052;-0,0028;-0,0088;56,35158459;37,52155257;0,00000000;
21:04:58:555;0,0052;-0,0028;-0,0088;56,35158459;37,52155257;0,00000000;
21:04:58:558;0,0052;-0,0028;-0,0088;56,35158459;37,52155257;0,00000000;
21:04:58:560;-0,0018;0,0019;0,0092;56,35158459;37,52155257;0,00000000;
21:04:58:615;-0,0018;0,0019;0,0092;56,35158459;37,52155257;0,00000000;
21:04:58:619;-0,0018;0,0019;0,0092;56,35158459;37,52155257;0,00000000;
21:04:58:621;-0,0136;0,0031;0,0202;56,35158459;37,52155257;0,00000000;
21:04:58:676;-0,0136;0,0031;0,0202;56,35158459;37,52155257;0,00000000;
21:04:58:679;-0,0136;0,0031;0,0202;56,35158459;37,52155257;0,00000000;
21:04:58:681;-0,0045;-0,0157;-0,0087;56,35158459;37,52155257;0,00000000;
21:04:58:735;-0,0045;-0,0157;-0,0087;56,35158459;37,52155257;0,00000000;
21:04:58:738;-0,0045;-0,0157;-0,0087;56,35158459;37,52155257;0,00000000;
21:04:58:740;0,0128;0,0021;-0,0095;56,35158459;37,52155257;0,00000000;
21:04:58:765;0,0128;0,0021;-0,0095;56,35158459;37,52155257;0,00000000;
21:04:58:816;0,0128;0,0021;-0,0095;56,35158459;37,52155257;0,00000000;
21:04:58:818;0,0128;0,0021;-0,0095;56,35158459;37,52155257;0,00000000;
21:04:58:819;-0,0047;0,0016;0,0012;56,35158459;37,52155257;0,00000000;
21:04:58:877;-0,0047;0,0016;0,0012;56,35158459;37,52155257;0,00000000;
21:04:58:880;-0,0047;0,0016;0,0012;56,35158459;37,52155257;0,00000000;
21:04:58:882;-0,0030;-0,0043;0,0094;56,35158459;37,52155257;0,00000000;
21:04:58:938;-0,0030;-0,0043;0,0094;56,35158459;37,52155257;0,00000000;
21:04:58:940;-0,0030;-0,0043;0,0094;56,35158459;37,52155257;0,00000000;
21:04:58:942;0,0188;-0,0038;-0,0203;56,35158459;37,52155257;0,00000000;
21:04:58:997;0,0188;-0,0038;-0,0203;56,35158459;37,52155257;0,00000000;
21:04:59:000;0,0188;-0,0038;-0,0203;56,35158459;37,52155257;0,00000000;
21:04:59:002;-0,0009;0,0082;0,0099;56,35158459;37,52155257;0,00000000;
21:04:59:080;-0,0009;0,0082;0,0099;56,35158459;37,52155257;0,00000000;
21:04:59:082;-0,0009;0,0082;0,0099;56,35158459;37,52155257;0,00000000;
21:04:59:084;-0,0034;0,0063;-0,0085;56,35158459;37,52155257;0,00000000;
21:04:59:138;-0,0034;0,0063;-0,0085;56,35158459;37,52155257;0,00000000;
21:04:59:140;-0,0034;0,0063;-0,0085;56,35158459;37,52155257;0,00000000;
21:04:59:142;0,0022;-0,0068;0,0137;56,35158459;37,52155257;0,00000000;
21:04:59:199;0,0022;-0,0068;0,0137;56,35158459;37,52155257;0,00000000;
21:04:59:202;0,0022;-0,0068;0,0137;56,35158459;37,52155257;0,00000000;
21:04:59:204;0,0089;0,0080;0,0059;56,35158459;37,52155257;0,00000000;
21:04:59:260;0,0089;0,0080;0,0059;56,35158459;37,52155257;0,00000000;
21:04:59:264;0,0089;0,0080;0,0059;56,35158459;37,52155257;0,00000000;
21:04:59:267;-0,0132;0,0073;0,0120;56,35158459;37,52155257;0,00000000;
21:04:59:290;-0,0117;0,0067;0,0107;56,35158459;37,52155257;0,00000000;
21:04:59:292;-0,0117;0,0067;0,0107;56,35158459;37,52155257;0,00000000;
21:04:59:340;-0,0117;0,0067;0,0107;56,35158459;37,52155257;0,00000000;
21:04:59:343;-0,0117;0,0067;0,0107;56,35158459;37,52155257;0,00000000;
21:04:59:346;-0,0036;-0,0136;-0,0089;56,35158459;37,52155257;0,00000000;
21:04:59:400;-0,0036;-0,0136;-0,0089;56,35158459;37,52155257;0,00000000;
21:04:59:403;-0,0036;-0,0136;-0,0089;56,35158459;37,52155257;0,00000000;
21:04:59:405;0,0069;-0,0067;-0,0012;56,35158459;37,52155257;0,00000000;
21:04:59:460;0,0069;-0,0067;-0,0012;56,35158459;37,52155257;0,00000000;
21:04:59:463;0,0069;-0,0067;-0,0012;56,35158459;37,52155257;0,00000000;
21:04:59:466;0,0004;0,0045;0,0124;56,35158459;37,52155257;0,00000000;
21:04:59:520;0,0004;0,0045;0,0124;56,35158459;37,52155257;0,00000000;
21:04:59:523;0,0004;0,0045;0,0124;56,35158459;37,52155257;0,00000000;
21:04:59:526;-0,0015;0,0018;-0,0110;56,35158459;37,52155257;0,00000000;
21:04:59:549;-0,0015;0,0018;-0,0110;56,35158459;37,52155257;0,00000000;
21:04:59:602;-0,0015;0,0018;-0,0110;56,35158459;37,52155257;0,00000000;
21:04:59:605;0,0056;-0,0004;-0,0083;56,35158459;37,52155257;0,00000000;
21:04:59:608;0,0056;-0,0004;-0,0083;56,35158459;37,52155257;0,00000000;
21:04:59:661;0,0056;-0,0004;-0,0083;56,35158459;37,52155257;0,00000000;
21:04:59:664;0,0056;-0,0004;-0,0083;56,35158459;37,52155257;0,00000000;
21:04:59:667;-0,0122;0,0084;0,0121;56,35158459;37,52155257;0,00000000;
21:04:59:724;-0,0122;0,0084;0,0121;56,35158459;37,52155257;0,00000000;
21:04:59:727;-0,0014;0,0011;-0,0132;56,35158459;37,52155257;0,00000000;
21:04:59:730;-0,0014;0,0011;-0,0132;56,35158459;37,52155257;0,00000000;
21:04:59:781;-0,0014;0,0011;-0,0132;56,35158459;37,52155257;0,00000000;
21:04:59:784;-0,0014;0,0011;-0,0132;56,35158459;37,52155257;0,00000000;
21:04:59:786;0,0031;-0,0183;-0,0049;56,35158459;37,52155257;0,00000000;
21:04:59:862;0,0031;-0,0183;-0,0049;56,35158459;37,52155257;0,00000000;
21:04:59:865;0,0031;-0,0183;-0,0049;56,35158459;37,52155257;0,00000000;
21:04:59:867;0,0169;0,0076;-0,0069;56,35158459;37,52155257;0,00000000;
21:04:59:922;0,0169;0,0076;-0,0069;56,35158459;37,52155257;0,00000000;
21:04:59:925;0,0169;0,0076;-0,0069;56,35158459;37,52155257;0,00000000;
21:04:59:927;-0,0201;0,0143;0,0091;56,35158459;37,52155257;0,00000000;
21:04:59:983;-0,0201;0,0143;0,0091;56,35158459;37,52155257;0,00000000;
21:04:59:986;-0,0201;0,0143;0,0091;56,35158459;37,52155257;0,00000000;
21:04:59:988;-0,0089;-0,0099;-0,0090;56,35158459;37,52155257;0,00000000;
21:05:00:043;-0,0089;-0,0099;-0,0090;56,35158459;37,52155257;0,00000000;
21:05:00:046;-0,0089;-0,0099;-0,0090;56,35158459;37,52155257;0,00000000;
21:05:00:049;0,0129;0,0032;0,0062;56,35158459;37,52155257;0,00000000;
21:05:00:071;0,0129;0,0032;0,0062;56,35158459;37,52155257;0,00000000;
21:05:00:073;0,0114;0,0027;0,0055;56,35158459;37,52155257;0,00000000;
21:05:00:123;0,0114;0,0027;0,0055;56,35158459;37,52155257;0,00000000;
21:05:00:126;0,0114;0,0027;0,0055;56,35158459;37,52155257;0,00000000;
21:05:00:132;0,0038;0,0061;0,0045;56,35158459;37,52155257;0,00000000;
21:05:00:183;0,0038;0,0061;0,0045;56,35158459;37,52155257;0,00000000;
21:05:00:186;0,0038;0,0061;0,0045;56,35158459;37,52155257;0,00000000;
21:05:00:189;-0,0004;0,0030;-0,0031;56,35158459;37,52155257;0,00000000;
21:05:00:244;-0,0004;0,0030;-0,0031;56,35158459;37,52155257;0,00000000;
21:05:00:246;-0,0004;0,0030;-0,0031;56,35158459;37,52155257;0,00000000;
21:05:00:248;0,0034;-0,0074;0,0118;56,35158459;37,52155257;0,00000000;
21:05:00:305;0,0034;-0,0074;0,0118;56,35158459;37,52155257;0,00000000;
21:05:00:308;0,0034;-0,0074;0,0118;56,35158459;37,52155257;0,00000000;
21:05:00:309;0,0097;-0,0045;-0,0162;56,35158459;37,52155257;0,00000000;
21:05:00:332;0,0097;-0,0045;-0,0162;56,35158459;37,52155257;0,00000000;
21:05:00:384;0,0097;-0,0045;-0,0162;56,35158459;37,52155257;0,00000000;
21:05:00:387;0,0097;-0,0045;-0,0162;56,35158459;37,52155257;0,00000000;
21:05:00:388;-0,0103;0,0015;-0,0058;56,35158459;37,52155257;0,00000000;
21:05:00:445;-0,0103;0,0015;-0,0058;56,35158459;37,52155257;0,00000000;
21:05:00:448;-0,0103;0,0015;-0,0058;56,35158459;37,52155257;0,00000000;
21:05:00:451;-0,0047;-0,0110;0,0068;56,35158459;37,52155257;0,00000000;
21:05:00:505;-0,0047;-0,0110;0,0068;56,35158459;37,52155257;0,00000000;
21:05:00:507;-0,0047;-0,0110;0,0068;56,35158459;37,52155257;0,00000000;
21:05:00:509;0,0167;0,0015;-0,0117;56,35158459;37,52155257;0,00000000;
21:05:00:565;0,0167;0,0015;-0,0117;56,35158459;37,52155257;0,00000000;
21:05:00:568;0,0167;0,0015;-0,0117;56,35158459;37,52155257;0,00000000;
21:05:00:570;-0,0108;0,0076;0,0159;56,35158459;37,52155257;0,00000000;
21:05:00:646;-0,0059;-0,0108;-0,0196;56,35158459;37,52155257;0,00000000;
21:05:00:649;-0,0059;-0,0108;-0,0196;56,35158459;37,52155257;0,00000000;
21:05:00:651;-0,0059;-0,0108;-0,0196;56,35158459;37,52155257;0,00000000;
21:05:00:706;-0,0059;-0,0108;-0,0196;56,35158459;37,52155257;0,00000000;
21:05:00:709;0,0097;0,0014;0,0081;56,35158459;37,52155257;0,00000000;
21:05:00:712;0,0097;0,0014;0,0081;56,35158459;37,52155257;0,00000000;
21:05:00:766;0,0097;0,0014;0,0081;56,35158459;37,52155257;0,00000000;
21:05:00:769;0,0097;0,0014;0,0081;56,35158459;37,52155257;0,00000000;
21:05:00:771;-0,0085;0,0035;0,0082;56,35158459;37,52155257;0,00000000;
21:05:00:828;-0,0085;0,0035;0,0082;56,35158459;37,52155257;0,00000000;
21:05:00:831;-0,0085;0,0035;0,0082;56,35158459;37,52155257;0,00000000;
21:05:00:833;-0,0131;0,0006;-0,0072;56,35158459;37,52155257;0,00000000;
21:05:00:856;-0,0131;0,0006;-0,0072;56,35158459;37,52155257;0,00000000;
21:05:00:859;-0,0114;0,0007;-0,0064;56,35158459;37,52155257;0,00000000;
21:05:00:908;-0,0114;0,0007;-0,0064;56,35158459;37,52155257;0,00000000;
21:05:00:910;-0,0114;0,0007;-0,0064;56,35158459;37,52155257;0,00000000;
21:05:00:912;-0,0025;-0,0202;0,0068;56,35158459;37,52155257;0,00000000;
21:05:00:968;-0,0025;-0,0202;0,0068;56,35158459;37,52155257;0,00000000;
21:05:00:970;-0,0025;-0,0202;0,0068;56,35158459;37,52155257;0,00000000;
21:05:00:972;0,0182;-0,0039;0,0043;56,35158459;37,52155257;0,00000000;
21:05:01:028;0,0182;-0,0039;0,0043;56,35158459;37,52155257;0,00000000;
21:05:01:030;0,0182;-0,0039;0,0043;56,35158459;37,52155257;0,00000000;
21:05:01:032;-0,0088;0,0067;0,0176;56,35158459;37,52155257;0,00000000;
21:05:01:089;-0,0088;0,0067;0,0176;56,35158459;37,52155257;0,00000000;
21:05:01:091;-0,0088;0,0067;0,0176;56,35158459;37,52155257;0,00000000;
21:05:01:093;-0,0129;0,0086;-0,0031;56,35158459;37,52155257;0,00000000;
21:05:01:117;-0,0129;0,0086;-0,0031;56,35158459;37,52155257;0,00000000;
21:05:01:169;-0,0129;0,0086;-0,0031;56,35158459;37,52155257;0,00000000;
21:05:01:172;-0,0129;0,0086;-0,0031;56,35158459;37,52155257;0,00000000;
21:05:01:175;0,0130;-0,0056;-0,0102;56,35158459;37,52155257;0,00000000;
21:05:01:230;0,0130;-0,0056;-0,0102;56,35158459;37,52155257;0,00000000;
21:05:01:232;0,0130;-0,0056;-0,0102;56,35158459;37,52155257;0,00000000;
21:05:01:234;-0,0022;0,0087;0,0217;56,35158459;37,52155257;0,00000000;
21:05:01:289;-0,0022;0,0087;0,0217;56,35158459;37,52155257;0,00000000;
21:05:01:292;-0,0022;0,0087;0,0217;56,35158459;37,52155257;0,00000000;
21:05:01:295;-0,0075;-0,0028;-0,0250;56,35158459;37,52155257;0,00000000;
21:05:01:349;-0,0075;-0,0028;-0,0250;56,35158459;37,52155257;0,00000000;
21:05:01:352;-0,0075;-0,0028;-0,0250;56,35158459;37,52155257;0,00000000;
21:05:01:356;0,0100;-0,0028;0,0008;56,35158459;37,52155257;0,00000000;
21:05:01:379;0,0100;-0,0028;0,0008;56,35158459;37,52155257;0,00000000;
21:05:01:382;0,0087;-0,0028;0,0007;56,35158459;37,52155257;0,00000000;
21:05:01:440;0,0087;-0,0028;0,0007;56,35158459;37,52155257;0,00000000;
21:05:01:443;0,0087;-0,0028;0,0007;56,35158459;37,52155257;0,00000000;
21:05:01:445;-0,0012;-0,0086;0,0077;56,35158459;37,52155257;0,00000000;
21:05:01:500;-0,0012;-0,0086;0,0077;56,35158459;37,52155257;0,00000000;
21:05:01:503;-0,0012;-0,0086;0,0077;56,35158459;37,52155257;0,00000000;
21:05:01:507;-0,0091;0,0080;-0,0016;56,35158459;37,52155257;0,00000000;
21:05:01:561;-0,0091;0,0080;-0,0016;56,35158459;37,52155257;0,00000000;
21:05:01:564;-0,0091;0,0080;-0,0016;56,35158459;37,52155257;0,00000000;
21:05:01:565;-0,0119;-0,0033;-0,0114;56,35158459;37,52155257;0,00000000;
21:05:01:621;-0,0119;-0,0033;-0,0114;56,35158459;37,52155257;0,00000000;
21:05:01:624;-0,0119;-0,0033;-0,0114;56,35158459;37,52155257;0,00000000;
21:05:01:626;0,0159;-0,0029;-0,0098;56,35158459;37,52155257;0,00000000;
21:05:01:641;0,0159;-0,0029;-0,0098;56,35158459;37,52155257;0,00000000;
21:05:01:700;0,0159;-0,0029;-0,0098;56,35158459;37,52155257;0,00000000;
21:05:01:703;0,0159;-0,0029;-0,0098;56,35158459;37,52155257;0,00000000;
21:05:01:705;-0,0033;0,0065;0,0040;56,35158459;37,52155257;0,00000000;
21:05:01:760;-0,0033;0,0065;0,0040;56,35158459;37,52155257;0,00000000;
21:05:01:763;-0,0033;0,0065;0,0040;56,35158459;37,52155257;0,00000000;
21:05:01:765;-0,0008;-0,0165;-0,0025;56,35158459;37,52155257;0,00000000;
21:05:01:821;-0,0008;-0,0165;-0,0025;56,35158459;37,52155257;0,00000000;
21:05:01:824;-0,0008;-0,0165;-0,0025;56,35158459;37,52155257;0,00000000;
21:05:01:826;0,0174;0,0016;-0,0114;56,35158459;37,52155257;0,00000000;
21:05:01:882;0,0174;0,0016;-0,0114;56,35158459;37,52155257;0,00000000;
21:05:01:885;-0,0083;0,0125;0,0104;56,35158459;37,52155257;0,00000000;
21:05:01:887;-0,0083;0,0125;0,0104;56,35158459;37,52155257;0,00000000;
21:05:01:963;-0,0083;0,0125;0,0104;56,35158459;37,52155257;0,00000000;
21:05:01:967;-0,0083;0,0125;0,0104;56,35158459;37,52155257;0,00000000;
21:05:01:970;-0,0008;-0,0043;-0,0124;56,35158459;37,52155257;0,00000000;
21:05:02:024;-0,0008;-0,0043;-0,0124;56,35158459;37,52155257;0,00000000;
21:05:02:027;-0,0008;-0,0043;-0,0124;56,35158459;37,52155257;0,00000000;
21:05:02:030;0,0070;-0,0103;0,0032;56,35158459;37,52155257;0,00000000;
21:05:02:082;0,0070;-0,0103;0,0032;56,35158459;37,52155257;0,00000000;
21:05:02:088;0,0070;-0,0103;0,0032;56,35158459;37,52155257;0,00000000;
21:05:02:092;0,0147;-0,0044;-0,0050;56,35158459;37,52155257;0,00000000;
21:05:02:144;0,0147;-0,0044;-0,0050;56,35158459;37,52155257;0,00000000;
21:05:02:146;0,0147;-0,0044;-0,0050;56,35158459;37,52155257;0,00000000;
21:05:02:148;-0,0120;0,0202;0,0112;56,35158459;37,52155257;0,00000000;
21:05:02:168;-0,0120;0,0202;0,0112;56,35158459;37,52155257;0,00000000;
21:05:02:170;-0,0107;0,0179;0,0100;56,35158459;37,52155257;0,00000000;
21:05:02:224;-0,0107;0,0179;0,0100;56,35158459;37,52155257;0,00000000;
21:05:02:228;-0,0107;0,0179;0,0100;56,35158459;37,52155257;0,00000000;
21:05:02:230;-0,0057;-0,0114;-0,0029;56,35158459;37,52155257;0,00000000;
21:05:02:284;-0,0057;-0,0114;-0,0029;56,35158459;37,52155257;0,00000000;
21:05:02:286;-0,0057;-0,0114;-0,0029;56,35158459;37,52155257;0,00000000;
21:05:02:288;0,0079;-0,0162;0,0002;56,35158459;37,52155257;0,00000000;
21:05:02:345;0,0079;-0,0162;0,0002;56,35158459;37,52155257;0,00000000;
21:05:02:347;0,0079;-0,0162;0,0002;56,35158459;37,52155257;0,00000000;
21:05:02:350;0,0049;0,0095;0,0073;56,35158459;37,52155257;0,00000000;
21:05:02:405;0,0049;0,0095;0,0073;56,35158459;37,52155257;0,00000000;
21:05:02:409;0,0049;0,0095;0,0073;56,35158459;37,52155257;0,00000000;
21:05:02:411;-0,0098;0,0091;-0,0117;56,35158459;37,52155257;0,00000000;
21:05:02:426;-0,0098;0,0091;-0,0117;56,35158459;37,52155257;0,00000000;
21:05:02:486;-0,0098;0,0091;-0,0117;56,35158459;37,52155257;0,00000000;
21:05:02:488;-0,0098;0,0091;-0,0117;56,35158459;37,52155257;0,00000000;
21:05:02:490;0,0114;-0,0012;-0,0004;56,35158459;37,52155257;0,00000000;
21:05:02:545;0,0114;-0,0012;-0,0004;56,35158459;37,52155257;0,00000000;
21:05:02:548;0,0114;-0,0012;-0,0004;56,35158459;37,52155257;0,00000000;
21:05:02:549;-0,0122;-0,0014;0,0088;56,35158459;37,52155257;0,00000000;
21:05:02:607;-0,0122;-0,0014;0,0088;56,35158459;37,52155257;0,00000000;
21:05:02:609;-0,0122;-0,0014;0,0088;56,35158459;37,52155257;0,00000000;
21:05:02:612;-0,0153;-0,0044;-0,0223;56,35158459;37,52155257;0,00000000;
21:05:02:667;-0,0153;-0,0044;-0,0223;56,35158459;37,52155257;0,00000000;
21:05:02:669;-0,0153;-0,0044;-0,0223;56,35158459;37,52155257;0,00000000;
21:05:02:672;0,0145;-0,0108;0,0089;56,35158459;37,52155257;0,00000000;
21:05:02:746;0,0145;-0,0108;0,0089;56,35158459;37,52155257;0,00000000;
21:05:02:749;0,0145;-0,0108;0,0089;56,35158459;37,52155257;0,00000000;
21:05:02:752;0,0157;-0,0044;0,0023;56,35158459;37,52155257;0,00000000;
21:05:02:807;0,0157;-0,0044;0,0023;56,35158459;37,52155257;0,00000000;
21:05:02:810;0,0157;-0,0044;0,0023;56,35158459;37,52155257;0,00000000;
21:05:02:813;-0,0064;0,0055;-0,0002;56,35158459;37,52155257;0,00000000;
21:05:02:868;-0,0064;0,0055;-0,0002;56,35158459;37,52155257;0,00000000;
21:05:02:871;-0,0064;0,0055;-0,0002;56,35158459;37,52155257;0,00000000;
21:05:02:873;-0,0107;-0,0092;-0,0177;56,35158459;37,52155257;0,00000000;
21:05:02:928;-0,0107;-0,0092;-0,0177;56,35158459;37,52155257;0,00000000;
21:05:02:930;-0,0107;-0,0092;-0,0177;56,35158459;37,52155257;0,00000000;
21:05:02:932;-0,0042;-0,0104;0,0031;56,35158459;37,52155257;0,00000000;
21:05:02:957;-0,0038;-0,0093;0,0027;56,35158459;37,52155257;0,00000000;
21:05:02:961;-0,0038;-0,0093;0,0027;56,35158459;37,52155257;0,00000000;
21:05:03:010;-0,0038;-0,0093;0,0027;56,35158459;37,52155257;0,00000000;
21:05:03:013;-0,0038;-0,0093;0,0027;56,35158459;37,52155257;0,00000000;
21:05:03:015;0,0203;0,0100;0,0138;56,35158459;37,52155257;0,00000000;
21:05:03:068;0,0203;0,0100;0,0138;56,35158459;37,52155257;0,00000000;
21:05:03:071;0,0203;0,0100;0,0138;56,35158459;37,52155257;0,00000000;
21:05:03:075;-0,0028;0,0162;0,0019;56,35158459;37,52155257;0,00000000;
21:05:03:129;-0,0028;0,0162;0,0019;56,35158459;37,52155257;0,00000000;
21:05:03:132;-0,0028;0,0162;0,0019;56,35158459;37,52155257;0,00000000;
21:05:03:134;-0,0029;-0,0184;-0,0195;56,35158459;37,52155257;0,00000000;
21:05:03:190;-0,0029;-0,0184;-0,0195;56,35158459;37,52155257;0,00000000;
21:05:03:193;-0,0029;-0,0184;-0,0195;56,35158459;37,52155257;0,00000000;
21:05:03:196;-0,0002;0,0148;0,0066;56,35158459;37,52155257;0,00000000;
21:05:03:211;-0,0002;0,0148;0,0066;56,35158459;37,52155257;0,00000000;
21:05:03:270;-0,0002;0,0148;0,0066;56,35158459;37,52155257;0,00000000;
21:05:03:273;-0,0336;0,3079;0,0524;56,35158459;37,52155257;0,00000000;
21:05:03:276;-0,0336;0,3079;0,0524;56,35158459;37,52155257;0,00000000;
21:05:03:330;-0,0336;0,3079;0,0524;56,35158459;37,52155257;0,00000000;
21:05:03:333;-0,0336;0,3079;0,0524;56,35158459;37,52155257;0,00000000;
21:05:03:335;-0,0025;0,2691;0,0118;56,35158459;37,52155257;0,00000000;
21:05:03:390;-0,0025;0,2691;0,0118;56,35158459;37,52155257;0,00000000;
21:05:03:393;-0,0025;0,2691;0,0118;56,35158459;37,52155257;0,00000000;
21:05:03:395;0,0027;0,2103;0,0304;56,35158459;37,52155257;0,00000000;
21:05:03:450;0,0027;0,2103;0,0304;56,35158459;37,52155257;0,00000000;
21:05:03:453;0,0027;0,2103;0,0304;56,35158459;37,52155257;0,00000000;
21:05:03:456;-0,0181;0,2502;0,0815;56,35158459;37,52155257;0,00000000;
21:05:03:531;-0,0181;0,2502;0,0815;56,35158459;37,52155257;0,00000000;
21:05:03:534;-0,0181;0,2502;0,0815;56,35158459;37,52155257;0,00000000;
21:05:03:537;-0,0045;0,2204;0,0443;56,35158459;37,52155257;0,00000000;
21:05:03:591;-0,0045;0,2204;0,0443;56,35158459;37,52155257;0,00000000;
21:05:03:593;-0,0045;0,2204;0,0443;56,35158459;37,52155257;0,00000000;
21:05:03:596;0,0061;0,1202;-0,0049;56,35158459;37,52155257;0,00000000;
21:05:03:651;0,0061;0,1202;-0,0049;56,35158459;37,52155257;0,00000000;
21:05:03:654;0,0061;0,1202;-0,0049;56,35158459;37,52155257;0,00000000;
21:05:03:658;0,0008;0,1108;0,0031;56,35158459;37,52155257;0,00000000;
21:05:03:711;0,0008;0,1108;0,0031;56,35158459;37,52155257;0,00000000;
21:05:03:714;0,0008;0,1108;0,0031;56,35158459;37,52155257;0,00000000;
21:05:03:716;-0,0258;0,1395;0,0555;56,35158459;37,52155257;0,00000000;
21:05:03:735;-0,0258;0,1395;0,0555;56,35158459;37,52155257;0,00000000;
21:05:03:738;-0,0222;0,1232;0,0491;56,35158459;37,52155257;0,00000000;
21:05:03:791;-0,0222;0,1232;0,0491;56,35158459;37,52155257;0,00000000;
21:05:03:794;-0,0222;0,1232;0,0491;56,35158459;37,52155257;0,00000000;
21:05:03:795;-0,0056;0,0821;0,0148;56,35158459;37,52155257;0,00000000;
21:05:03:852;-0,0056;0,0821;0,0148;56,35158459;37,52155257;0,00000000;
21:05:03:855;-0,0056;0,0821;0,0148;56,35158459;37,52155257;0,00000000;
21:05:03:857;0,0250;0,0204;-0,0333;56,35158459;37,52155257;0,00000000;
21:05:03:913;0,0250;0,0204;-0,0333;56,35158459;37,52155257;0,00000000;
21:05:03:916;0,0250;0,0204;-0,0333;56,35158459;37,52155257;0,00000000;
21:05:03:918;0,0142;0,0355;0,0027;56,35158459;37,52155257;0,00000000;
21:05:03:974;0,0142;0,0355;0,0027;56,35158459;37,52155257;0,00000000;
21:05:03:977;0,0142;0,0355;0,0027;56,35158459;37,52155257;0,00000000;
21:05:03:979;-0,0131;0,0809;0,0313;56,35158459;37,52155257;0,00000000;
21:05:03:995;-0,0131;0,0809;0,0313;56,35158459;37,52155257;0,00000000;
21:05:04:054;-0,0131;0,0809;0,0313;56,35158459;37,52155257;0,00000000;
21:05:04:057;-0,0131;0,0809;0,0313;56,35158459;37,52155257;0,00000000;
21:05:04:059;-0,0080;0,0337;-0,0266;56,35158459;37,52155257;0,00000000;
21:05:04:114;-0,0080;0,0337;-0,0266;56,35158459;37,52155257;0,00000000;
21:05:04:116;-0,0080;0,0337;-0,0266;56,35158459;37,52155257;0,00000000;
21:05:04:119;-0,0112;0,0745;0,0483;56,35158459;37,52155257;0,00000000;
21:05:04:174;-0,0112;0,0745;0,0483;56,35158459;37,52155257;0,00000000;
21:05:04:177;-0,0112;0,0745;0,0483;56,35158459;37,52155257;0,00000000;
21:05:04:183;0,0032;0,1180;0,0266;56,35158459;37,52155257;0,00000000;
21:05:04:235;0,0032;0,1180;0,0266;56,35158459;37,52155257;0,00000000;
21:05:04:238;0,0032;0,1180;0,0266;56,35158459;37,52155257;0,00000000;
21:05:04:240;0,0207;0,1117;0,0449;56,35158459;37,52155257;0,00000000;
21:05:04:315;0,0207;0,1117;0,0449;56,35158459;37,52155257;0,00000000;
21:05:04:318;0,0207;0,1117;0,0449;56,35158459;37,52155257;0,00000000;
21:05:04:320;0,0256;0,2065;-0,0385;56,35158459;37,52155257;0,00000000;
21:05:04:375;0,0256;0,2065;-0,0385;56,35158459;37,52155257;0,00000000;
21:05:04:379;0,0256;0,2065;-0,0385;56,35158459;37,52155257;0,00000000;
21:05:04:381;-0,0339;0,2098;0,0768;56,35158459;37,52155257;0,00000000;
21:05:04:435;-0,0339;0,2098;0,0768;56,35158459;37,52155257;0,00000000;
21:05:04:440;-0,0339;0,2098;0,0768;56,35158459;37,52155257;0,00000000;
21:05:04:442;-0,0541;0,2107;0,0274;56,35158459;37,52155257;0,00000000;
21:05:04:496;-0,0541;0,2107;0,0274;56,35158459;37,52155257;0,00000000;
21:05:04:499;-0,0541;0,2107;0,0274;56,35158459;37,52155257;0,00000000;
21:05:04:501;-0,0112;0,3190;0,0117;56,35158459;37,52155257;0,00000000;
21:05:04:522;-0,0112;0,3190;0,0117;56,35158459;37,52155257;0,00000000;
21:05:04:526;-0,0101;0,2812;0,0101;56,35158459;37,52155257;0,00000000;
21:05:04:577;-0,0101;0,2812;0,0101;56,35158459;37,52155257;0,00000000;
21:05:04:579;-0,0101;0,2812;0,0101;56,35158459;37,52155257;0,00000000;
21:05:04:581;-0,0260;0,2728;0,0686;56,35158459;37,52155257;0,00000000;
21:05:04:637;-0,0260;0,2728;0,0686;56,35158459;37,52155257;0,00000000;
21:05:04:640;-0,0260;0,2728;0,0686;56,35158459;37,52155257;0,00000000;
21:05:04:642;0,0348;0,3160;0,0645;56,35158459;37,52155257;0,00000000;
21:05:04:696;0,0348;0,3160;0,0645;56,35158459;37,52155257;0,00000000;
21:05:04:699;0,0348;0,3160;0,0645;56,35159456;37,52156706;0,23000000;
21:05:04:703;-0,0079;0,4465;0,0471;56,35159456;37,52156706;0,23000000;
21:05:04:756;-0,0079;0,4465;0,0471;56,35159456;37,52156706;0,23000000;
21:05:04:759;-0,0079;0,4465;0,0471;56,35159456;37,52156706;0,23000000;
21:05:04:761;0,0095;0,6021;0,0996;56,35159456;37,52156706;0,23000000;
21:05:04:779;0,0095;0,6021;0,0996;56,35159456;37,52156706;0,23000000;
21:05:04:837;0,0095;0,6021;0,0996;56,35159456;37,52156706;0,23000000;
21:05:04:841;0,0095;0,6021;0,0996;56,35159456;37,52156706;0,23000000;
21:05:04:843;-0,0341;0,9573;0,1470;56,35159456;37,52156706;0,23000000;
21:05:04:898;-0,0341;0,9573;0,1470;56,35159456;37,52156706;0,23000000;
21:05:04:900;-0,0341;0,9573;0,1470;56,35159456;37,52156706;0,23000000;
21:05:04:904;-0,0215;1,0923;0,1646;56,35159456;37,52156706;0,23000000;
21:05:04:958;-0,0215;1,0923;0,1646;56,35159456;37,52156706;0,23000000;
21:05:04:961;-0,0215;1,0923;0,1646;56,35159456;37,52156706;0,23000000;
21:05:04:963;-0,0563;1,1941;0,1995;56,35159456;37,52156706;0,23000000;
21:05:05:018;-0,0563;1,1941;0,1995;56,35159456;37,52156706;0,23000000;
21:05:05:021;-0,0563;1,1941;0,1995;56,35159456;37,52156706;0,23000000;
21:05:05:024;-0,0648;1,2590;0,1927;56,35159456;37,52156706;0,23000000;
21:05:05:098;-0,0648;1,2590;0,1927;56,35159456;37,52156706;0,23000000;
21:05:05:104;-0,0631;1,2670;0,1431;56,35159456;37,52156706;0,23000000;
21:05:05:106;-0,0631;1,2670;0,1431;56,35159456;37,52156706;0,23000000;
21:05:05:158;-0,0631;1,2670;0,1431;56,35159456;37,52156706;0,23000000;
21:05:05:160;-0,0631;1,2670;0,1431;56,35159456;37,52156706;0,23000000;
21:05:05:164;-0,0389;1,0848;0,1040;56,35159456;37,52156706;0,23000000;
21:05:05:220;-0,0389;1,0848;0,1040;56,35159456;37,52156706;0,23000000;
21:05:05:222;-0,0389;1,0848;0,1040;56,35159456;37,52156706;0,23000000;
21:05:05:225;-0,0617;0,9302;0,0848;56,35159456;37,52156706;0,23000000;
21:05:05:280;-0,0617;0,9302;0,0848;56,35159456;37,52156706;0,23000000;
21:05:05:282;-0,0617;0,9302;0,0848;56,35159456;37,52156706;0,23000000;
21:05:05:286;-0,0600;0,7841;0,0899;56,35159456;37,52156706;0,23000000;
21:05:05:303;-0,0600;0,7841;0,0899;56,35159456;37,52156706;0,23000000;
21:05:05:307;-0,0556;0,7004;0,0804;56,35159456;37,52156706;0,23000000;
21:05:05:360;-0,0556;0,7004;0,0804;56,35159456;37,52156706;0,23000000;
21:05:05:363;-0,0556;0,7004;0,0804;56,35159456;37,52156706;0,23000000;
21:05:05:365;-0,0191;0,5343;0,0739;56,35159456;37,52156706;0,23000000;
21:05:05:421;0,0524;0,3505;0,0948;56,35159456;37,52156706;0,23000000;
21:05:05:424;0,0524;0,3505;0,0948;56,35159456;37,52156706;0,23000000;
21:05:05:426;0,0524;0,3505;0,0948;56,35159456;37,52156706;0,23000000;
21:05:05:481;0,0524;0,3505;0,0948;56,35159456;37,52156706;0,23000000;
21:05:05:484;0,0524;0,3505;0,0948;56,35159456;37,52156706;0,23000000;
21:05:05:487;0,0719;0,2647;0,1237;56,35159456;37,52156706;0,23000000;
21:05:05:541;0,0719;0,2647;0,1237;56,35159456;37,52156706;0,23000000;
21:05:05:544;0,0719;0,2647;0,1237;56,35159456;37,52156706;0,23000000;
21:05:05:546;-0,0193;0,2121;0,0378;56,35159456;37,52156706;0,23000000;
21:05:05:565;-0,0193;0,2121;0,0378;56,35159456;37,52156706;0,23000000;
21:05:05:610;0,0291;0,2032;0,0149;56,35159456;37,52156706;0,23000000;
21:05:05:613;0,0291;0,2032;0,0149;56,35159456;37,52156706;0,23000000;
21:05:05:663;0,0291;0,2032;0,0149;56,35159456;37,52156706;0,23000000;
21:05:05:666;0,0291;0,2032;0,0149;56,35159456;37,52156706;0,23000000;
21:05:05:668;-0,0033;0,1562;-0,0404;56,35159456;37,52156706;0,23000000;
21:05:05:722;-0,0033;0,1562;-0,0404;56,35159456;37,52156706;0,23000000;
21:05:05:724;-0,0033;0,1562;-0,0404;56,35159456;37,52156706;0,23000000;
21:05:05:726;-0,0946;0,0445;0,0990;56,35159456;37,52156706;0,23000000;
21:05:05:781;-0,0946;0,0445;0,0990;56,35159456;37,52156706;0,23000000;
21:05:05:784;-0,0946;0,0445;0,0990;56,35159456;37,52156706;0,23000000;
21:05:05:786;-0,1282;0,1104;-0,0476;56,35159456;37,52156706;0,23000000;
21:05:05:826;-0,1282;0,1104;-0,0476;56,35159456;37,52156706;0,23000000;
21:05:05:883;-0,1282;0,1104;-0,0476;56,35159456;37,52156706;0,23000000;
21:05:05:886;-0,1282;0,1104;-0,0476;56,35159456;37,52156706;0,23000000;
21:05:05:888;0,0313;-0,0098;0,1394;56,35159456;37,52156706;0,23000000;
21:05:05:943;0,0313;-0,0098;0,1394;56,35159456;37,52156706;0,23000000;
21:05:05:946;0,0313;-0,0098;0,1394;56,35159456;37,52156706;0,23000000;
21:05:05:951;0,0575;0,0486;0,0732;56,35159456;37,52156706;0,23000000;
21:05:06:004;0,0575;0,0486;0,0732;56,35159456;37,52156706;0,23000000;
21:05:06:007;0,0575;0,0486;0,0732;56,35159456;37,52156706;0,23000000;
21:05:06:009;0,1335;-0,0129;-0,0217;56,35159456;37,52156706;0,23000000;
21:05:06:063;0,1335;-0,0129;-0,0217;56,35159456;37,52156706;0,23000000;
21:05:06:068;0,1335;-0,0129;-0,0217;56,35159456;37,52156706;0,23000000;
21:05:06:070;0,0547;-0,0086;0,0387;56,35159456;37,52156706;0,23000000;
21:05:06:092;0,0515;-0,0116;0,0338;56,35159456;37,52156706;0,23000000;
21:05:06:095;0,0515;-0,0116;0,0338;56,35159456;37,52156706;0,23000000;
21:05:06:122;0,0515;-0,0116;0,0338;56,35159456;37,52156706;0,23000000;
21:05:06:175;0,0515;-0,0116;0,0338;56,35159456;37,52156706;0,23000000;
21:05:06:178;0,0515;-0,0116;0,0338;56,35159456;37,52156706;0,23000000;
21:05:06:180;-0,0800;-0,0587;-0,0906;56,35159456;37,52156706;0,23000000;
21:05:06:235;-0,0800;-0,0587;-0,0906;56,35159456;37,52156706;0,23000000;
21:05:06:237;-0,0800;-0,0587;-0,0906;56,35159456;37,52156706;0,23000000;
21:05:06:239;-0,0491;-0,0663;-0,0253;56,35159456;37,52156706;0,23000000;
21:05:06:296;-0,0491;-0,0663;-0,0253;56,35159456;37,52156706;0,23000000;
21:05:06:299;-0,0164;-0,0687;-0,0508;56,35159456;37,52156706;0,23000000;
21:05:06:301;-0,0164;-0,0687;-0,0508;56,35159456;37,52156706;0,23000000;
21:05:06:350;-0,0164;-0,0687;-0,0508;56,35159456;37,52156706;0,23000000;
21:05:06:353;-0,0164;-0,0687;-0,0508;56,35159456;37,52156706;0,23000000;
21:05:06:355;0,0088;-0,1563;0,0432;56,35159456;37,52156706;0,23000000;
21:05:06:405;0,0088;-0,1563;0,0432;56,35159456;37,52156706;0,23000000;
21:05:06:408;0,0088;-0,1563;0,0432;56,35159456;37,52156706;0,23000000;
21:05:06:411;-0,0442;-0,1277;0,0015;56,35159456;37,52156706;0,23000000;
21:05:06:465;-0,0442;-0,1277;0,0015;56,35159456;37,52156706;0,23000000;
21:05:06:468;-0,0442;-0,1277;0,0015;56,35159456;37,52156706;0,23000000;
21:05:06:470;0,0427;-0,1246;-0,0957;56,35159456;37,52156706;0,23000000;
21:05:06:527;0,0427;-0,1246;-0,0957;56,35159456;37,52156706;0,23000000;
21:05:06:530;0,0427;-0,1246;-0,0957;56,35159456;37,52156706;0,23000000;
21:05:06:533;-0,0042;-0,0985;-0,1459;56,35159456;37,52156706;0,23000000;
21:05:06:586;-0,0042;-0,0985;-0,1459;56,35159456;37,52156706;0,23000000;
21:05:06:589;-0,0042;-0,0985;-0,1459;56,35159456;37,52156706;0,23000000;
21:05:06:591;-0,0024;-0,1482;0,0519;56,35159456;37,52156706;0,23000000;
21:05:06:633;-0,0024;-0,1482;0,0519;56,35159456;37,52156706;0,23000000;
21:05:06:636;0,0039;-0,1306;0,0456;56,35159456;37,52156706;0,23000000;
21:05:06:694;0,0039;-0,1306;0,0456;56,35159456;37,52156706;0,23000000;
21:05:06:696;0,0039;-0,1306;0,0456;56,35156738;37,52154981;2,66000009;
21:05:06:699;0,0084;-0,1321;0,1035;56,35156738;37,52154981;2,66000009;
21:05:06:746;0,0084;-0,1321;0,1035;56,35156738;37,52154981;2,66000009;
21:05:06:748;0,0084;-0,1321;0,1035;56,35156738;37,52154981;2,66000009;
21:05:06:749;-0,0104;-0,0419;-0,0185;56,35156738;37,52154981;2,66000009;
21:05:06:806;-0,0104;-0,0419;-0,0185;56,35156738;37,52154981;2,66000009;
21:05:06:808;-0,0104;-0,0419;-0,0185;56,35156738;37,52154981;2,66000009;
21:05:06:810;-0,0913;-0,0980;0,0697;56,35156738;37,52154981;2,66000009;
21:05:06:868;-0,0913;-0,0980;0,0697;56,35156738;37,52154981;2,66000009;
21:05:06:870;-0,0913;-0,0980;0,0697;56,35156738;37,52154981;2,66000009;
21:05:06:871;-0,0587;-0,0341;-0,0448;56,35156738;37,52154981;2,66000009;
21:05:06:927;-0,0587;-0,0341;-0,0448;56,35156738;37,52154981;2,66000009;
21:05:06:928;-0,0587;-0,0341;-0,0448;56,35156738;37,52154981;2,66000009;
21:05:06:930;0,0032;-0,0966;-0,0298;56,35156738;37,52154981;2,66000009;
21:05:06:988;0,0032;-0,0966;-0,0298;56,35156738;37,52154981;2,66000009;
21:05:06:990;0,0032;-0,0966;-0,0298;56,35156738;37,52154981;2,66000009;
21:05:06:992;0,0183;-0,0934;-0,0491;56,35156738;37,52154981;2,66000009;
21:05:07:048;0,0183;-0,0934;-0,0491;56,35156738;37,52154981;2,66000009;
21:05:07:050;0,0183;-0,0934;-0,0491;56,35156738;37,52154981;2,66000009;
21:05:07:052;0,0568;-0,0782;0,0075;56,35156738;37,52154981;2,66000009;
21:05:07:109;0,0568;-0,0782;0,0075;56,35156738;37,52154981;2,66000009;
21:05:07:111;0,0568;-0,0782;0,0075;56,35156738;37,52154981;2,66000009;
21:05:07:113;-0,0003;-0,0731;-0,1177;56,35156738;37,52154981;2,66000009;
21:05:07:129;-0,0003;-0,0731;-0,1177;56,35156738;37,52154981;2,66000009;
21:05:07:199;-0,0967;-0,1727;0,1605;56,35156738;37,52154981;2,66000009;
21:05:07:203;-0,0967;-0,1727;0,1605;56,35156738;37,52154981;2,66000009;
21:05:07:205;-0,0967;-0,1727;0,1605;56,35156738;37,52154981;2,66000009;
21:05:07:258;-0,0967;-0,1727;0,1605;56,35156738;37,52154981;2,66000009;
21:05:07:260;-0,0967;-0,1727;0,1605;56,35156738;37,52154981;2,66000009;
21:05:07:262;-0,0281;-0,1743;0,0983;56,35156738;37,52154981;2,66000009;
21:05:07:318;-0,0281;-0,1743;0,0983;56,35156738;37,52154981;2,66000009;
21:05:07:320;-0,0281;-0,1743;0,0983;56,35156738;37,52154981;2,66000009;
21:05:07:321;-0,0305;-0,1035;-0,1173;56,35156738;37,52154981;2,66000009;
21:05:07:379;-0,0305;-0,1035;-0,1173;56,35156738;37,52154981;2,66000009;
21:05:07:380;-0,0305;-0,1035;-0,1173;56,35156738;37,52154981;2,66000009;
21:05:07:382;-0,1549;-0,1260;-0,1193;56,35156738;37,52154981;2,66000009;
21:05:07:450;-0,1549;-0,1260;-0,1193;56,35156738;37,52154981;2,66000009;
21:05:07:453;-0,1549;-0,1260;-0,1193;56,35156738;37,52154981;2,66000009;
21:05:07:454;-0,0033;-0,1248;-0,1186;56,35156738;37,52154981;2,66000009;
21:05:07:511;-0,0033;-0,1248;-0,1186;56,35156738;37,52154981;2,66000009;
21:05:07:514;-0,0033;-0,1248;-0,1186;56,35156738;37,52154981;2,66000009;
21:05:07:516;0,0266;-0,1549;-0,0517;56,35156738;37,52154981;2,66000009;
21:05:07:571;0,0266;-0,1549;-0,0517;56,35156738;37,52154981;2,66000009;
21:05:07:573;0,0266;-0,1549;-0,0517;56,35156738;37,52154981;2,66000009;
21:05:07:574;-0,0043;-0,1856;0,0036;56,35156738;37,52154981;2,66000009;
21:05:07:632;-0,0043;-0,1856;0,0036;56,35156738;37,52154981;2,66000009;
21:05:07:634;-0,0043;-0,1856;0,0036;56,35156738;37,52154981;2,66000009;
21:05:07:636;0,0243;-0,2635;-0,0583;56,35156738;37,52154981;2,66000009;
21:05:07:652;0,0243;-0,2635;-0,0583;56,35156738;37,52154981;2,66000009;
21:05:07:655;0,0210;-0,2310;-0,0514;56,35156738;37,52154981;2,66000009;
21:05:07:712;0,0210;-0,2310;-0,0514;56,35156738;37,52154981;2,66000009;
21:05:07:714;0,0210;-0,2310;-0,0514;56,35153642;37,52153113;3,68000007;
21:05:07:716;-0,0592;-0,1630;-0,0989;56,35153642;37,52153113;3,68000007;
21:05:07:771;-0,0592;-0,1630;-0,0989;56,35153642;37,52153113;3,68000007;
21:05:07:773;-0,0592;-0,1630;-0,0989;56,35153642;37,52153113;3,68000007;
21:05:07:775;-0,0354;-0,0374;0,0420;56,35153642;37,52153113;3,68000007;
21:05:07:832;-0,0354;-0,0374;0,0420;56,35153642;37,52153113;3,68000007;
21:05:07:834;-0,0354;-0,0374;0,0420;56,35153642;37,52153113;3,68000007;
21:05:07:836;-0,0492;0,0562;0,2302;56,35153642;37,52153113;3,68000007;
21:05:07:893;-0,0492;0,0562;0,2302;56,35153642;37,52153113;3,68000007;
21:05:07:895;-0,0492;0,0562;0,2302;56,35153642;37,52153113;3,68000007;
21:05:07:897;-0,0743;0,0309;-0,0242;56,35153642;37,52153113;3,68000007;
21:05:07:963;-0,0743;0,0309;-0,0242;56,35153642;37,52153113;3,68000007;
21:05:07:965;-0,0743;0,0309;-0,0242;56,35153642;37,52153113;3,68000007;
21:05:07:967;-0,0219;-0,0251;-0,0619;56,35153642;37,52153113;3,68000007;
21:05:08:024;-0,0219;-0,0251;-0,0619;56,35153642;37,52153113;3,68000007;
21:05:08:026;-0,0219;-0,0251;-0,0619;56,35153642;37,52153113;3,68000007;
21:05:08:028;0,0243;0,0466;-0,2036;56,35153642;37,52153113;3,68000007;
21:05:08:083;0,0243;0,0466;-0,2036;56,35153642;37,52153113;3,68000007;
21:05:08:086;0,0243;0,0466;-0,2036;56,35153642;37,52153113;3,68000007;
21:05:08:088;-0,0502;-0,0414;-0,1142;56,35153642;37,52153113;3,68000007;
21:05:08:143;-0,0502;-0,0414;-0,1142;56,35153642;37,52153113;3,68000007;
21:05:08:146;-0,0502;-0,0414;-0,1142;56,35153642;37,52153113;3,68000007;
21:05:08:148;-0,0711;-0,0759;0,0292;56,35153642;37,52153113;3,68000007;
21:05:08:165;-0,0711;-0,0759;0,0292;56,35153642;37,52153113;3,68000007;
21:05:08:224;-0,0711;-0,0759;0,0292;56,35153642;37,52153113;3,68000007;
21:05:08:226;-0,0711;-0,0759;0,0292;56,35153642;37,52153113;3,68000007;
21:05:08:228;0,0998;-0,0885;-0,0078;56,35153642;37,52153113;3,68000007;
21:05:08:284;0,0998;-0,0885;-0,0078;56,35153642;37,52153113;3,68000007;
21:05:08:287;0,0998;-0,0885;-0,0078;56,35153642;37,52153113;3,68000007;
21:05:08:289;0,0141;-0,0856;-0,0592;56,35153642;37,52153113;3,68000007;
21:05:08:345;0,0141;-0,0856;-0,0592;56,35153642;37,52153113;3,68000007;
21:05:08:347;0,0141;-0,0856;-0,0592;56,35153642;37,52153113;3,68000007;
21:05:08:351;-0,0772;-0,1347;-0,0318;56,35153642;37,52153113;3,68000007;
21:05:08:405;-0,0772;-0,1347;-0,0318;56,35153642;37,52153113;3,68000007;
21:05:08:408;-0,0772;-0,1347;-0,0318;56,35153642;37,52153113;3,68000007;
21:05:08:409;-0,0610;-0,0519;-0,0158;56,35153642;37,52153113;3,68000007;
21:05:08:486;-0,0610;-0,0519;-0,0158;56,35153642;37,52153113;3,68000007;
21:05:08:488;-0,0610;-0,0519;-0,0158;56,35153642;37,52153113;3,68000007;
21:05:08:490;-0,0036;-0,1158;0,0279;56,35153642;37,52153113;3,68000007;
21:05:08:549;-0,0036;-0,1158;0,0279;56,35153642;37,52153113;3,68000007;
21:05:08:551;-0,0036;-0,1158;0,0279;56,35153642;37,52153113;3,68000007;
21:05:08:553;0,1670;-0,0598;-0,0585;56,35153642;37,52153113;3,68000007;
21:05:08:606;0,1670;-0,0598;-0,0585;56,35153642;37,52153113;3,68000007;
21:05:08:608;0,1670;-0,0598;-0,0585;56,35153642;37,52153113;3,68000007;
21:05:08:610;0,0668;-0,0933;0,0589;56,35153642;37,52153113;3,68000007;
21:05:08:670;0,0668;-0,0933;0,0589;56,35153642;37,52153113;3,68000007;
21:05:08:672;0,0668;-0,0933;0,0589;56,35149588;37,52150706;4,36000013;
21:05:08:674;0,0333;-0,0230;-0,1527;56,35149588;37,52150706;4,36000013;
21:05:08:686;0,0333;-0,0230;-0,1527;56,35149588;37,52150706;4,36000013;
21:05:08:688;0,0315;-0,0224;-0,1361;56,35149588;37,52150706;4,36000013;
21:05:08:746;0,0315;-0,0224;-0,1361;56,35149588;37,52150706;4,36000013;
21:05:08:748;0,0315;-0,0224;-0,1361;56,35149588;37,52150706;4,36000013;
21:05:08:749;0,1191;-0,0931;-0,1475;56,35149588;37,52150706;4,36000013;
21:05:08:807;0,1191;-0,0931;-0,1475;56,35149588;37,52150706;4,36000013;
21:05:08:810;0,1191;-0,0931;-0,1475;56,35149588;37,52150706;4,36000013;
21:05:08:813;0,0511;-0,0642;-0,0203;56,35149588;37,52150706;4,36000013;
21:05:08:868;0,0511;-0,0642;-0,0203;56,35149588;37,52150706;4,36000013;
21:05:08:871;0,0511;-0,0642;-0,0203;56,35149588;37,52150706;4,36000013;
21:05:08:875;0,1028;-0,1114;0,0180;56,35149588;37,52150706;4,36000013;
21:05:08:928;0,1028;-0,1114;0,0180;56,35149588;37,52150706;4,36000013;
21:05:08:931;0,1028;-0,1114;0,0180;56,35149588;37,52150706;4,36000013;
21:05:08:933;0,2677;-0,2054;-0,0662;56,35149588;37,52150706;4,36000013;
21:05:08:957;0,2677;-0,2054;-0,0662;56,35149588;37,52150706;4,36000013;
21:05:09:009;0,2677;-0,2054;-0,0662;56,35149588;37,52150706;4,36000013;
21:05:09:012;0,2677;-0,2054;-0,0662;56,35149588;37,52150706;4,36000013;
21:05:09:013;0,1033;-0,1945;0,0058;56,35149588;37,52150706;4,36000013;
21:05:09:069;0,1033;-0,1945;0,0058;56,35149588;37,52150706;4,36000013;
21:05:09:072;0,1033;-0,1945;0,0058;56,35149588;37,52150706;4,36000013;
21:05:09:074;0,1674;-0,2521;-0,0015;56,35149588;37,52150706;4,36000013;
21:05:09:129;0,1674;-0,2521;-0,0015;56,35149588;37,52150706;4,36000013;
21:05:09:132;0,1674;-0,2521;-0,0015;56,35149588;37,52150706;4,36000013;
21:05:09:135;0,0856;-0,2229;-0,1181;56,35149588;37,52150706;4,36000013;
21:05:09:180;0,0856;-0,2229;-0,1181;56,35149588;37,52150706;4,36000013;
21:05:09:183;0,0856;-0,2229;-0,1181;56,35149588;37,52150706;4,36000013;
21:05:09:185;0,1032;-0,2832;-0,0024;56,35149588;37,52150706;4,36000013;
21:05:09:261;0,1032;-0,2832;-0,0024;56,35149588;37,52150706;4,36000013;
21:05:09:264;0,1032;-0,2832;-0,0024;56,35149588;37,52150706;4,36000013;
21:05:09:267;0,1442;-0,2942;0,0721;56,35149588;37,52150706;4,36000013;
21:05:09:320;0,1442;-0,2942;0,0721;56,35149588;37,52150706;4,36000013;
21:05:09:322;0,1442;-0,2942;0,0721;56,35149588;37,52150706;4,36000013;
21:05:09:324;0,0667;-0,2249;-0,2990;56,35149588;37,52150706;4,36000013;
21:05:09:381;0,0667;-0,2249;-0,2990;56,35149588;37,52150706;4,36000013;
21:05:09:385;0,0667;-0,2249;-0,2990;56,35149588;37,52150706;4,36000013;
21:05:09:387;0,1708;-0,2874;-0,1525;56,35149588;37,52150706;4,36000013;
21:05:09:442;0,1708;-0,2874;-0,1525;56,35149588;37,52150706;4,36000013;
21:05:09:445;0,1708;-0,2874;-0,1525;56,35149588;37,52150706;4,36000013;
21:05:09:447;0,1690;-0,3315;-0,0637;56,35149588;37,52150706;4,36000013;
21:05:09:467;0,1690;-0,3315;-0,0637;56,35149588;37,52150706;4,36000013;
21:05:09:469;0,1664;-0,3212;-0,0620;56,35149588;37,52150706;4,36000013;
21:05:09:522;0,1664;-0,3212;-0,0620;56,35149588;37,52150706;4,36000013;
21:05:09:526;0,1664;-0,3212;-0,0620;56,35149588;37,52150706;4,36000013;
21:05:09:528;0,2577;-0,3761;-0,1887;56,35149588;37,52150706;4,36000013;
21:05:09:581;0,2577;-0,3761;-0,1887;56,35149588;37,52150706;4,36000013;
21:05:09:585;0,2577;-0,3761;-0,1887;56,35149588;37,52150706;4,36000013;
21:05:09:587;0,2215;-0,3432;-0,0163;56,35149588;37,52150706;4,36000013;
21:05:09:641;0,2215;-0,3432;-0,0163;56,35149588;37,52150706;4,36000013;
21:05:09:646;0,2215;-0,3432;-0,0163;56,35149588;37,52150706;4,36000013;
21:05:09:648;0,3119;-0,3563;-0,1994;56,35149588;37,52150706;4,36000013;
21:05:09:690;0,3119;-0,3563;-0,1994;56,35149588;37,52150706;4,36000013;
21:05:09:727;0,3119;-0,3563;-0,1994;56,35144856;37,52147314;5,03000021;
21:05:09:732;0,3119;-0,3563;-0,1994;56,35144856;37,52147314;5,03000021;
21:05:09:734;0,4807;-0,4716;-0,0402;56,35144856;37,52147314;5,03000021;
21:05:09:782;0,4807;-0,4716;-0,0402;56,35144856;37,52147314;5,03000021;
21:05:09:786;0,4005;-0,5113;-0,1405;56,35144856;37,52147314;5,03000021;
21:05:09:790;0,4005;-0,5113;-0,1405;56,35144856;37,52147314;5,03000021;
21:05:09:843;0,4005;-0,5113;-0,1405;56,35144856;37,52147314;5,03000021;
21:05:09:846;0,4005;-0,5113;-0,1405;56,35144856;37,52147314;5,03000021;
21:05:09:849;0,5420;-0,5153;-0,2379;56,35144856;37,52147314;5,03000021;
21:05:09:904;0,5420;-0,5153;-0,2379;56,35144856;37,52147314;5,03000021;
21:05:09:906;0,5420;-0,5153;-0,2379;56,35144856;37,52147314;5,03000021;
21:05:09:908;0,5222;-0,5369;-0,1476;56,35144856;37,52147314;5,03000021;
21:05:09:964;0,5222;-0,5369;-0,1476;56,35144856;37,52147314;5,03000021;
21:05:09:966;0,5222;-0,5369;-0,1476;56,35144856;37,52147314;5,03000021;
21:05:09:968;0,4975;-0,6151;-0,1678;56,35144856;37,52147314;5,03000021;
21:05:10:043;0,4975;-0,6151;-0,1678;56,35144856;37,52147314;5,03000021;
21:05:10:044;0,4975;-0,6151;-0,1678;56,35144856;37,52147314;5,03000021;
21:05:10:046;0,6376;-0,7593;-0,3348;56,35144856;37,52147314;5,03000021;
21:05:10:105;0,6406;-0,8799;-0,3718;56,35144856;37,52147314;5,03000021;
21:05:10:107;0,6406;-0,8799;-0,3718;56,35144856;37,52147314;5,03000021;
21:05:10:108;0,6406;-0,8799;-0,3718;56,35144856;37,52147314;5,03000021;
21:05:10:163;0,6406;-0,8799;-0,3718;56,35144856;37,52147314;5,03000021;
21:05:10:164;0,6406;-0,8799;-0,3718;56,35144856;37,52147314;5,03000021;
21:05:10:165;0,5043;-1,0063;-0,2192;56,35144856;37,52147314;5,03000021;
21:05:10:202;0,5043;-1,0063;-0,2192;56,35144856;37,52147314;5,03000021;
21:05:10:203;0,4962;-0,9792;-0,2139;56,35144856;37,52147314;5,03000021;
21:05:10:251;0,4962;-0,9792;-0,2139;56,35144856;37,52147314;5,03000021;
21:05:10:252;0,4962;-0,9792;-0,2139;56,35144856;37,52147314;5,03000021;
21:05:10:253;0,4949;-1,1730;-0,1727;56,35144856;37,52147314;5,03000021;
21:05:10:305;0,4949;-1,1730;-0,1727;56,35144856;37,52147314;5,03000021;
21:05:10:308;0,4949;-1,1730;-0,1727;56,35144856;37,52147314;5,03000021;
21:05:10:310;0,5336;-1,4577;-0,1676;56,35144856;37,52147314;5,03000021;
21:05:10:366;0,5336;-1,4577;-0,1676;56,35144856;37,52147314;5,03000021;
21:05:10:368;0,5336;-1,4577;-0,1676;56,35144856;37,52147314;5,03000021;
21:05:10:371;0,5419;-1,4474;-0,2463;56,35144856;37,52147314;5,03000021;
21:05:10:426;0,5419;-1,4474;-0,2463;56,35144856;37,52147314;5,03000021;
21:05:10:429;0,5419;-1,4474;-0,2463;56,35144856;37,52147314;5,03000021;
21:05:10:432;0,4978;-1,4023;-0,3403;56,35144856;37,52147314;5,03000021;
21:05:10:487;0,4978;-1,4023;-0,3403;56,35144856;37,52147314;5,03000021;
21:05:10:490;0,4978;-1,4023;-0,3403;56,35144856;37,52147314;5,03000021;
21:05:10:492;0,5679;-1,5006;-0,1506;56,35144856;37,52147314;5,03000021;
21:05:10:514;0,5679;-1,5006;-0,1506;56,35144856;37,52147314;5,03000021;
21:05:10:567;0,5679;-1,5006;-0,1506;56,35144856;37,52147314;5,03000021;
21:05:10:570;0,5679;-1,5006;-0,1506;56,35144856;37,52147314;5,03000021;
21:05:10:572;0,3940;-1,2513;-0,1943;56,35144856;37,52147314;5,03000021;
21:05:10:627;0,3940;-1,2513;-0,1943;56,35144856;37,52147314;5,03000021;
21:05:10:630;0,3940;-1,2513;-0,1943;56,35144856;37,52147314;5,03000021;
21:05:10:633;0,4635;-0,9738;-0,2813;56,35144856;37,52147314;5,03000021;
21:05:10:691;0,4635;-0,9738;-0,2813;56,35144856;37,52147314;5,03000021;
21:05:10:694;0,4635;-0,9738;-0,2813;56,35141131;37,52142746;5,03000021;
21:05:10:701;0,6168;-0,6325;-0,3336;56,35141131;37,52142746;5,03000021;
21:05:10:766;0,6168;-0,6325;-0,3336;56,35141131;37,52142746;5,03000021;
21:05:10:769;0,6168;-0,6325;-0,3336;56,35141131;37,52142746;5,03000021;
21:05:10:770;0,6706;-0,4132;-0,3116;56,35141131;37,52142746;5,03000021;
21:05:10:828;0,6706;-0,4132;-0,3116;56,35141131;37,52142746;5,03000021;
21:05:10:831;0,6706;-0,4132;-0,3116;56,35141131;37,52142746;5,03000021;
21:05:10:833;0,6628;-0,3376;-0,2661;56,35141131;37,52142746;5,03000021;
21:05:10:888;0,6628;-0,3376;-0,2661;56,35141131;37,52142746;5,03000021;
21:05:10:890;0,6628;-0,3376;-0,2661;56,35141131;37,52142746;5,03000021;
21:05:10:892;0,6818;-0,2772;-0,2543;56,35141131;37,52142746;5,03000021;
21:05:10:949;0,6818;-0,2772;-0,2543;56,35141131;37,52142746;5,03000021;
21:05:10:952;0,6818;-0,2772;-0,2543;56,35141131;37,52142746;5,03000021;
21:05:10:954;0,7234;-0,1617;-0,1138;56,35141131;37,52142746;5,03000021;
21:05:11:009;0,7234;-0,1617;-0,1138;56,35141131;37,52142746;5,03000021;
21:05:11:012;0,7234;-0,1617;-0,1138;56,35141131;37,52142746;5,03000021;
21:05:11:014;0,5744;-0,1766;-0,0642;56,35141131;37,52142746;5,03000021;
21:05:11:029;0,5744;-0,1766;-0,0642;56,35141131;37,52142746;5,03000021;
21:05:11:032;0,5033;-0,1497;-0,0544;56,35141131;37,52142746;5,03000021;
21:05:11:090;0,5033;-0,1497;-0,0544;56,35141131;37,52142746;5,03000021;
21:05:11:092;0,5033;-0,1497;-0,0544;56,35141131;37,52142746;5,03000021;
21:05:11:094;0,4504;-0,1855;0,0650;56,35141131;37,52142746;5,03000021;
21:05:11:150;0,4988;-0,2101;0,0994;56,35141131;37,52142746;5,03000021;
21:05:11:154;0,4988;-0,2101;0,0994;56,35141131;37,52142746;5,03000021;
21:05:11:156;0,4988;-0,2101;0,0994;56,35141131;37,52142746;5,03000021;
21:05:11:210;0,4988;-0,2101;0,0994;56,35141131;37,52142746;5,03000021;
21:05:11:212;0,4988;-0,2101;0,0994;56,35141131;37,52142746;5,03000021;
21:05:11:216;0,5027;-0,2834;0,2754;56,35141131;37,52142746;5,03000021;
21:05:11:280;0,5027;-0,2834;0,2754;56,35141131;37,52142746;5,03000021;
21:05:11:283;0,5027;-0,2834;0,2754;56,35141131;37,52142746;5,03000021;
21:05:11:285;0,3891;-0,2038;0,1512;56,35141131;37,52142746;5,03000021;
21:05:11:341;0,3891;-0,2038;0,1512;56,35141131;37,52142746;5,03000021;
21:05:11:345;0,3891;-0,2038;0,1512;56,35141131;37,52142746;5,03000021;
21:05:11:348;0,4050;-0,1299;-0,2086;56,35141131;37,52142746;5,03000021;
21:05:11:401;0,4050;-0,1299;-0,2086;56,35141131;37,52142746;5,03000021;
21:05:11:404;0,4050;-0,1299;-0,2086;56,35141131;37,52142746;5,03000021;
21:05:11:406;0,4188;-0,1056;-0,3867;56,35141131;37,52142746;5,03000021;
21:05:11:461;0,4188;-0,1056;-0,3867;56,35141131;37,52142746;5,03000021;
21:05:11:465;0,3877;-0,0852;-0,4054;56,35141131;37,52142746;5,03000021;
21:05:11:468;0,3877;-0,0852;-0,4054;56,35141131;37,52142746;5,03000021;
21:05:11:521;0,3877;-0,0852;-0,4054;56,35141131;37,52142746;5,03000021;
21:05:11:524;0,3877;-0,0852;-0,4054;56,35141131;37,52142746;5,03000021;
21:05:11:526;0,4752;-0,0598;-0,6005;56,35141131;37,52142746;5,03000021;
21:05:11:543;0,4752;-0,0598;-0,6005;56,35141131;37,52142746;5,03000021;
21:05:11:603;0,4752;-0,0598;-0,6005;56,35141131;37,52142746;5,03000021;
21:05:11:606;0,4752;-0,0598;-0,6005;56,35141131;37,52142746;5,03000021;
21:05:11:607;0,5524;-0,1032;-0,1298;56,35141131;37,52142746;5,03000021;
21:05:11:661;0,5524;-0,1032;-0,1298;56,35141131;37,52142746;5,03000021;
21:05:11:663;0,5524;-0,1032;-0,1298;56,35141131;37,52142746;5,03000021;
21:05:11:665;0,6163;-0,1796;0,1303;56,35141131;37,52142746;5,03000021;
21:05:11:721;0,6163;-0,1796;0,1303;56,35141131;37,52142746;5,03000021;
21:05:11:723;0,6163;-0,1796;0,1303;56,35136907;37,52138258;5,15999985;
21:05:11:725;0,4910;-0,3538;0,4292;56,35136907;37,52138258;5,15999985;
21:05:11:792;0,4910;-0,3538;0,4292;56,35136907;37,52138258;5,15999985;
21:05:11:794;0,4910;-0,3538;0,4292;56,35136907;37,52138258;5,15999985;
21:05:11:795;0,3489;-0,3148;0,4395;56,35136907;37,52138258;5,15999985;
21:05:11:853;0,3489;-0,3148;0,4395;56,35136907;37,52138258;5,15999985;
21:05:11:856;0,3489;-0,3148;0,4395;56,35136907;37,52138258;5,15999985;
21:05:11:859;0,3333;-0,1952;0,1760;56,35136907;37,52138258;5,15999985;
21:05:11:914;0,3333;-0,1952;0,1760;56,35136907;37,52138258;5,15999985;
21:05:11:917;0,3333;-0,1952;0,1760;56,35136907;37,52138258;5,15999985;
21:05:11:919;0,5311;-0,1078;-0,2924;56,35136907;37,52138258;5,15999985;
21:05:11:974;0,5311;-0,1078;-0,2924;56,35136907;37,52138258;5,15999985;
21:05:11:977;0,5311;-0,1078;-0,2924;56,35136907;37,52138258;5,15999985;
21:05:11:979;0,5194;0,2627;-0,5347;56,35136907;37,52138258;5,15999985;
21:05:12:034;0,5194;0,2627;-0,5347;56,35136907;37,52138258;5,15999985;
21:05:12:037;0,5194;0,2627;-0,5347;56,35136907;37,52138258;5,15999985;
21:05:12:040;0,2338;0,2516;-0,3275;56,35136907;37,52138258;5,15999985;
21:05:12:060;0,2338;0,2516;-0,3275;56,35136907;37,52138258;5,15999985;
21:05:12:064;0,2158;0,2416;-0,3203;56,35136907;37,52138258;5,15999985;
21:05:12:116;0,2158;0,2416;-0,3203;56,35136907;37,52138258;5,15999985;
21:05:12:118;0,2158;0,2416;-0,3203;56,35136907;37,52138258;5,15999985;
21:05:12:120;0,3699;0,2655;-0,0569;56,35136907;37,52138258;5,15999985;
21:05:12:175;0,3699;0,2655;-0,0569;56,35136907;37,52138258;5,15999985;
21:05:12:179;0,3699;0,2655;-0,0569;56,35136907;37,52138258;5,15999985;
21:05:12:180;0,3270;0,2847;-0,0434;56,35136907;37,52138258;5,15999985;
21:05:12:234;0,3270;0,2847;-0,0434;56,35136907;37,52138258;5,15999985;
21:05:12:237;0,3270;0,2847;-0,0434;56,35136907;37,52138258;5,15999985;
21:05:12:239;0,2736;0,2672;-0,0319;56,35136907;37,52138258;5,15999985;
21:05:12:306;0,2736;0,2672;-0,0319;56,35136907;37,52138258;5,15999985;
21:05:12:309;0,2736;0,2672;-0,0319;56,35136907;37,52138258;5,15999985;
21:05:12:311;0,2785;0,3279;-0,0390;56,35136907;37,52138258;5,15999985;
21:05:12:366;0,2785;0,3279;-0,0390;56,35136907;37,52138258;5,15999985;
21:05:12:369;0,2785;0,3279;-0,0390;56,35136907;37,52138258;5,15999985;
21:05:12:370;0,4372;0,2431;0,0086;56,35136907;37,52138258;5,15999985;
21:05:12:427;0,4372;0,2431;0,0086;56,35136907;37,52138258;5,15999985;
21:05:12:430;0,4372;0,2431;0,0086;56,35136907;37,52138258;5,15999985;
21:05:12:432;0,2673;0,2603;-0,0192;56,35136907;37,52138258;5,15999985;
21:05:12:487;0,2673;0,2603;-0,0192;56,35136907;37,52138258;5,15999985;
21:05:12:490;0,2673;0,2603;-0,0192;56,35136907;37,52138258;5,15999985;
21:05:12:492;0,1873;0,2564;0,0531;56,35136907;37,52138258;5,15999985;
21:05:12:546;0,1873;0,2564;0,0531;56,35136907;37,52138258;5,15999985;
21:05:12:549;0,1873;0,2564;0,0531;56,35136907;37,52138258;5,15999985;
21:05:12:551;0,5141;0,2084;0,1119;56,35136907;37,52138258;5,15999985;
21:05:12:569;0,5141;0,2084;0,1119;56,35136907;37,52138258;5,15999985;
21:05:12:629;0,4803;0,2247;0,0348;56,35136907;37,52138258;5,15999985;
21:05:12:632;0,4803;0,2247;0,0348;56,35136907;37,52138258;5,15999985;
21:05:12:635;0,4803;0,2247;0,0348;56,35136907;37,52138258;5,15999985;
21:05:12:688;0,4803;0,2247;0,0348;56,35136907;37,52138258;5,15999985;
21:05:12:692;0,2941;0,1810;0,0304;56,35135837;37,52133543;4,46000004;
21:05:12:696;0,2941;0,1810;0,0304;56,35135837;37,52133543;4,46000004;
21:05:12:747;0,2941;0,1810;0,0304;56,35135837;37,52133543;4,46000004;
21:05:12:750;0,2941;0,1810;0,0304;56,35135837;37,52133543;4,46000004;
21:05:12:751;0,3067;0,2017;-0,0700;56,35135837;37,52133543;4,46000004;
21:05:12:818;0,3067;0,2017;-0,0700;56,35135837;37,52133543;4,46000004;
21:05:12:824;0,3972;0,2744;-0,1003;56,35135837;37,52133543;4,46000004;
21:05:12:827;0,3972;0,2744;-0,1003;56,35135837;37,52133543;4,46000004;
21:05:12:889;0,3972;0,2744;-0,1003;56,35135837;37,52133543;4,46000004;
21:05:12:892;0,3972;0,2744;-0,1003;56,35135837;37,52133543;4,46000004;
21:05:12:894;0,3221;0,3237;-0,1735;56,35135837;37,52133543;4,46000004;
21:05:12:951;0,3221;0,3237;-0,1735;56,35135837;37,52133543;4,46000004;
21:05:12:955;0,3221;0,3237;-0,1735;56,35135837;37,52133543;4,46000004;
21:05:12:957;0,2076;0,2070;-0,2336;56,35135837;37,52133543;4,46000004;
21:05:13:010;0,2076;0,2070;-0,2336;56,35135837;37,52133543;4,46000004;
21:05:13:012;0,2076;0,2070;-0,2336;56,35135837;37,52133543;4,46000004;
21:05:13:014;0,5798;0,1623;0,0444;56,35135837;37,52133543;4,46000004;
21:05:13:070;0,5798;0,1623;0,0444;56,35135837;37,52133543;4,46000004;
21:05:13:073;0,5798;0,1623;0,0444;56,35135837;37,52133543;4,46000004;
21:05:13:076;0,5927;0,1543;0,0249;56,35135837;37,52133543;4,46000004;
21:05:13:098;0,5771;0,1336;0,0232;56,35135837;37,52133543;4,46000004;
21:05:13:104;0,5771;0,1336;0,0232;56,35135837;37,52133543;4,46000004;
21:05:13:150;0,5771;0,1336;0,0232;56,35135837;37,52133543;4,46000004;
21:05:13:153;0,5771;0,1336;0,0232;56,35135837;37,52133543;4,46000004;
21:05:13:155;0,5674;0,2050;-0,0849;56,35135837;37,52133543;4,46000004;
21:05:13:210;0,5674;0,2050;-0,0849;56,35135837;37,52133543;4,46000004;
21:05:13:212;0,5674;0,2050;-0,0849;56,35135837;37,52133543;4,46000004;
21:05:13:213;0,5531;0,1678;-0,0270;56,35135837;37,52133543;4,46000004;
21:05:13:272;0,5531;0,1678;-0,0270;56,35135837;37,52133543;4,46000004;
21:05:13:277;0,5531;0,1678;-0,0270;56,35135837;37,52133543;4,46000004;
21:05:13:280;0,5676;0,1443;-0,0207;56,35135837;37,52133543;4,46000004;
21:05:13:332;0,5676;0,1443;-0,0207;56,35135837;37,52133543;4,46000004;
21:05:13:335;0,5676;0,1443;-0,0207;56,35135837;37,52133543;4,46000004;
21:05:13:337;0,3239;0,2707;-0,1061;56,35135837;37,52133543;4,46000004;
21:05:13:357;0,3239;0,2707;-0,1061;56,35135837;37,52133543;4,46000004;
21:05:13:411;0,3239;0,2707;-0,1061;56,35135837;37,52133543;4,46000004;
21:05:13:414;0,3239;0,2707;-0,1061;56,35135837;37,52133543;4,46000004;
21:05:13:416;0,3266;0,2570;0,0328;56,35135837;37,52133543;4,46000004;
21:05:13:473;0,3266;0,2570;0,0328;56,35135837;37,52133543;4,46000004;
21:05:13:477;0,3266;0,2570;0,0328;56,35135837;37,52133543;4,46000004;
21:05:13:479;0,3320;0,3050;0,0136;56,35135837;37,52133543;4,46000004;
21:05:13:532;0,3320;0,3050;0,0136;56,35135837;37,52133543;4,46000004;
21:05:13:537;0,3320;0,3050;0,0136;56,35135837;37,52133543;4,46000004;
21:05:13:539;0,4010;0,2831;-0,2069;56,35135837;37,52133543;4,46000004;
21:05:13:592;0,4010;0,2831;-0,2069;56,35135837;37,52133543;4,46000004;
21:05:13:595;0,4010;0,2831;-0,2069;56,35135837;37,52133543;4,46000004;
21:05:13:597;0,4989;0,1724;0,0437;56,35135837;37,52133543;4,46000004;
21:05:13:673;0,4989;0,1724;0,0437;56,35135837;37,52133543;4,46000004;
21:05:13:677;0,4989;0,1724;0,0437;56,35135837;37,52133543;4,46000004;
21:05:13:680;0,7859;0,1915;-0,1004;56,35135837;37,52133543;4,46000004;
21:05:13:734;0,4491;0,1227;-0,0323;56,35135837;37,52133543;4,46000004;
21:05:13:738;0,4491;0,1227;-0,0323;56,35136044;37,52126621;4,88000011;
21:05:13:740;0,4491;0,1227;-0,0323;56,35136044;37,52126621;4,88000011;
21:05:13:786;0,4491;0,1227;-0,0323;56,35136044;37,52126621;4,88000011;
21:05:13:789;0,4491;0,1227;-0,0323;56,35136044;37,52126621;4,88000011;
21:05:13:791;0,3634;0,1665;0,0793;56,35136044;37,52126621;4,88000011;
21:05:13:843;0,3634;0,1665;0,0793;56,35136044;37,52126621;4,88000011;
21:05:13:847;0,3634;0,1665;0,0793;56,35136044;37,52126621;4,88000011;
21:05:13:849;0,3466;0,1237;-0,1268;56,35136044;37,52126621;4,88000011;
21:05:13:875;0,3466;0,1237;-0,1268;56,35136044;37,52126621;4,88000011;
21:05:13:878;0,3407;0,0963;-0,1277;56,35136044;37,52126621;4,88000011;
21:05:13:936;0,3407;0,0963;-0,1277;56,35136044;37,52126621;4,88000011;
21:05:13:939;0,3407;0,0963;-0,1277;56,35136044;37,52126621;4,88000011;
21:05:13:941;0,4126;0,1281;-0,1866;56,35136044;37,52126621;4,88000011;
21:05:13:995;0,4126;0,1281;-0,1866;56,35136044;37,52126621;4,88000011;
21:05:13:999;0,4126;0,1281;-0,1866;56,35136044;37,52126621;4,88000011;
21:05:14:000;0,3555;0,0369;-0,0696;56,35136044;37,52126621;4,88000011;
21:05:14:055;0,3555;0,0369;-0,0696;56,35136044;37,52126621;4,88000011;
21:05:14:058;0,3555;0,0369;-0,0696;56,35136044;37,52126621;4,88000011;
21:05:14:062;0,4359;-0,0582;0,1129;56,35136044;37,52126621;4,88000011;
21:05:14:116;0,4359;-0,0582;0,1129;56,35136044;37,52126621;4,88000011;
21:05:14:119;0,4359;-0,0582;0,1129;56,35136044;37,52126621;4,88000011;
21:05:14:121;0,6139;0,0136;-0,0111;56,35136044;37,52126621;4,88000011;
21:05:14:138;0,6139;0,0136;-0,0111;56,35136044;37,52126621;4,88000011;
21:05:14:195;0,6139;0,0136;-0,0111;56,35136044;37,52126621;4,88000011;
21:05:14:198;0,6139;0,0136;-0,0111;56,35136044;37,52126621;4,88000011;
21:05:14:199;0,3640;-0,0098;-0,1870;56,35136044;37,52126621;4,88000011;
21:05:14:256;0,3640;-0,0098;-0,1870;56,35136044;37,52126621;4,88000011;
21:05:14:260;0,1966;0,0876;-0,3516;56,35136044;37,52126621;4,88000011;
21:05:14:264;0,1966;0,0876;-0,3516;56,35136044;37,52126621;4,88000011;
21:05:14:298;0,1966;0,0876;-0,3516;56,35136044;37,52126621;4,88000011;
21:05:14:301;0,2057;0,0668;-0,3512;56,35136044;37,52126621;4,88000011;
21:05:14:357;0,2057;0,0668;-0,3512;56,35136044;37,52126621;4,88000011;
21:05:14:360;0,2057;0,0668;-0,3512;56,35136044;37,52126621;4,88000011;
21:05:14:362;0,3640;-0,0783;-0,1651;56,35136044;37,52126621;4,88000011;
21:05:14:392;0,3640;-0,0783;-0,1651;56,35136044;37,52126621;4,88000011;
21:05:14:448;0,3640;-0,0783;-0,1651;56,35136044;37,52126621;4,88000011;
21:05:14:451;0,3640;-0,0783;-0,1651;56,35136044;37,52126621;4,88000011;
21:05:14:454;0,2525;-0,1469;0,2805;56,35136044;37,52126621;4,88000011;
21:05:14:508;0,2525;-0,1469;0,2805;56,35136044;37,52126621;4,88000011;
21:05:14:512;0,2525;-0,1469;0,2805;56,35136044;37,52126621;4,88000011;
21:05:14:515;0,1937;-0,1465;0,1667;56,35136044;37,52126621;4,88000011;
21:05:14:569;0,1937;-0,1465;0,1667;56,35136044;37,52126621;4,88000011;
21:05:14:572;0,1937;-0,1465;0,1667;56,35136044;37,52126621;4,88000011;
21:05:14:575;0,0931;0,0029;-0,1966;56,35136044;37,52126621;4,88000011;
21:05:14:629;0,0931;0,0029;-0,1966;56,35136044;37,52126621;4,88000011;
21:05:14:632;0,0931;0,0029;-0,1966;56,35136044;37,52126621;4,88000011;
21:05:14:634;-0,0109;-0,0109;-0,2693;56,35136044;37,52126621;4,88000011;
21:05:14:657;-0,0109;-0,0109;-0,2693;56,35136044;37,52126621;4,88000011;
21:05:14:669;0,0008;-0,0249;-0,2693;56,35136044;37,52126621;4,88000011;
21:05:14:707;0,0008;-0,0249;-0,2693;56,35136044;37,52126621;4,88000011;
21:05:14:709;0,0008;-0,0249;-0,2693;56,35136083;37,52117998;5,48999977;
21:05:14:711;-0,1486;-0,0014;-0,3082;56,35136083;37,52117998;5,48999977;
21:05:14:768;-0,1486;-0,0014;-0,3082;56,35136083;37,52117998;5,48999977;
21:05:14:769;-0,1486;-0,0014;-0,3082;56,35136083;37,52117998;5,48999977;
21:05:14:770;-0,1557;0,0031;-0,2291;56,35136083;37,52117998;5,48999977;
21:05:14:809;-0,1557;0,0031;-0,2291;56,35136083;37,52117998;5,48999977;
21:05:14:870;-0,1557;0,0031;-0,2291;56,35136083;37,52117998;5,48999977;
21:05:14:873;-0,3480;-0,0804;0,2737;56,35136083;37,52117998;5,48999977;
21:05:14:877;-0,3480;-0,0804;0,2737;56,35136083;37,52117998;5,48999977;
21:05:14:915;-0,3480;-0,0804;0,2737;56,35136083;37,52117998;5,48999977;
21:05:14:918;-0,3480;-0,0804;0,2737;56,35136083;37,52117998;5,48999977;
21:05:14:919;-0,4336;-0,0109;-0,0492;56,35136083;37,52117998;5,48999977;
21:05:14:969;-0,4336;-0,0109;-0,0492;56,35136083;37,52117998;5,48999977;
21:05:14:973;-0,4336;-0,0109;-0,0492;56,35136083;37,52117998;5,48999977;
21:05:14:976;-0,3454;-0,0666;-0,0652;56,35136083;37,52117998;5,48999977;
21:05:15:031;-0,3454;-0,0666;-0,0652;56,35136083;37,52117998;5,48999977;
21:05:15:035;-0,3454;-0,0666;-0,0652;56,35136083;37,52117998;5,48999977;
21:05:15:038;-0,4702;-0,0869;0,0985;56,35136083;37,52117998;5,48999977;
21:05:15:091;-0,4702;-0,0869;0,0985;56,35136083;37,52117998;5,48999977;
21:05:15:095;-0,4702;-0,0869;0,0985;56,35136083;37,52117998;5,48999977;
21:05:15:097;-0,5383;-0,1000;0,1124;56,35136083;37,52117998;5,48999977;
21:05:15:151;-0,5383;-0,1000;0,1124;56,35136083;37,52117998;5,48999977;
21:05:15:154;-0,5383;-0,1000;0,1124;56,35136083;37,52117998;5,48999977;
21:05:15:157;-0,3852;-0,0735;-0,0039;56,35136083;37,52117998;5,48999977;
21:05:15:232;-0,3852;-0,0735;-0,0039;56,35136083;37,52117998;5,48999977;
21:05:15:236;-0,3852;-0,0735;-0,0039;56,35136083;37,52117998;5,48999977;
21:05:15:239;-0,4691;-0,0810;-0,0014;56,35136083;37,52117998;5,48999977;
21:05:15:291;-0,4691;-0,0810;-0,0014;56,35136083;37,52117998;5,48999977;
21:05:15:295;-0,4691;-0,0810;-0,0014;56,35136083;37,52117998;5,48999977;
21:05:15:298;-0,3419;-0,0780;0,0393;56,35136083;37,52117998;5,48999977;
21:05:15:322;-0,3419;-0,0780;0,0393;56,35136083;37,52117998;5,48999977;
21:05:15:325;-0,2898;-0,0757;0,0309;56,35136083;37,52117998;5,48999977;
21:05:15:381;-0,2898;-0,0757;0,0309;56,35136083;37,52117998;5,48999977;
21:05:15:386;-0,2898;-0,0757;0,0309;56,35136083;37,52117998;5,48999977;
21:05:15:388;-0,3474;-0,0364;0,0799;56,35136083;37,52117998;5,48999977;
21:05:15:440;-0,3474;-0,0364;0,0799;56,35136083;37,52117998;5,48999977;
21:05:15:446;-0,3474;-0,0364;0,0799;56,35136083;37,52117998;5,48999977;
21:05:15:448;-0,4717;-0,0823;0,2759;56,35136083;37,52117998;5,48999977;
21:05:15:492;-0,4717;-0,0823;0,2759;56,35136083;37,52117998;5,48999977;
21:05:15:495;-0,4717;-0,0823;0,2759;56,35136083;37,52117998;5,48999977;
21:05:15:497;-0,4496;-0,1983;0,3478;56,35136083;37,52117998;5,48999977;
21:05:15:553;-0,4496;-0,1983;0,3478;56,35136083;37,52117998;5,48999977;
21:05:15:557;-0,4496;-0,1983;0,3478;56,35136083;37,52117998;5,48999977;
21:05:15:561;-0,3885;-0,0960;0,1818;56,35136083;37,52117998;5,48999977;
21:05:15:613;-0,3885;-0,0960;0,1818;56,35136083;37,52117998;5,48999977;
21:05:15:617;-0,3885;-0,0960;0,1818;56,35136083;37,52117998;5,48999977;
21:05:15:619;-0,3312;-0,1420;0,1544;56,35136083;37,52117998;5,48999977;
21:05:15:672;-0,3312;-0,1420;0,1544;56,35136083;37,52117998;5,48999977;
21:05:15:675;-0,3312;-0,1420;0,1544;56,35136083;37,52117998;5,48999977;
21:05:15:677;-0,2700;-0,1366;0,0671;56,35136083;37,52117998;5,48999977;
21:05:15:703;-0,2700;-0,1366;0,0671;56,35136083;37,52117998;5,48999977;
21:05:15:752;-0,2700;-0,1366;0,0671;56,35138409;37,52106093;6,76000023;
21:05:15:754;-0,2700;-0,1366;0,0671;56,35138409;37,52106093;6,76000023;
21:05:15:756;-0,5928;-0,1000;-0,0034;56,35138409;37,52106093;6,76000023;
21:05:15:814;-0,5928;-0,1000;-0,0034;56,35138409;37,52106093;6,76000023;
21:05:15:816;-0,5928;-0,1000;-0,0034;56,35138409;37,52106093;6,76000023;
21:05:15:818;-0,4939;-0,1792;0,0980;56,35138409;37,52106093;6,76000023;
21:05:15:874;-0,4939;-0,1792;0,0980;56,35138409;37,52106093;6,76000023;
21:05:15:877;-0,4939;-0,1792;0,0980;56,35138409;37,52106093;6,76000023;
21:05:15:878;-0,5031;-0,1606;0,3200;56,35138409;37,52106093;6,76000023;
21:05:15:935;-0,5031;-0,1606;0,3200;56,35138409;37,52106093;6,76000023;
21:05:15:939;-0,5031;-0,1606;0,3200;56,35138409;37,52106093;6,76000023;
21:05:15:941;-0,4706;-0,1943;0,2219;56,35138409;37,52106093;6,76000023;
21:05:16:016;-0,4706;-0,1943;0,2219;56,35138409;37,52106093;6,76000023;
21:05:16:019;-0,4706;-0,1943;0,2219;56,35138409;37,52106093;6,76000023;
21:05:16:021;-0,4403;-0,1965;0,2939;56,35138409;37,52106093;6,76000023;
21:05:16:076;-0,4403;-0,1965;0,2939;56,35138409;37,52106093;6,76000023;
21:05:16:080;-0,4403;-0,1965;0,2939;56,35138409;37,52106093;6,76000023;
21:05:16:082;-0,6004;-0,0844;-0,0638;56,35138409;37,52106093;6,76000023;
21:05:16:134;-0,6004;-0,0844;-0,0638;56,35138409;37,52106093;6,76000023;
21:05:16:137;-0,6004;-0,0844;-0,0638;56,35138409;37,52106093;6,76000023;
21:05:16:140;-0,5492;0,0441;-0,3962;56,35138409;37,52106093;6,76000023;
21:05:16:196;-0,5492;0,0441;-0,3962;56,35138409;37,52106093;6,76000023;
21:05:16:200;-0,5492;0,0441;-0,3962;56,35138409;37,52106093;6,76000023;
21:05:16:202;-0,4991;-0,0045;-0,2357;56,35138409;37,52106093;6,76000023;
21:05:16:226;-0,4991;-0,0045;-0,2357;56,35138409;37,52106093;6,76000023;
21:05:16:229;-0,4872;-0,0033;-0,2324;56,35138409;37,52106093;6,76000023;
21:05:16:277;-0,4872;-0,0033;-0,2324;56,35138409;37,52106093;6,76000023;
21:05:16:280;-0,4872;-0,0033;-0,2324;56,35138409;37,52106093;6,76000023;
21:05:16:282;-0,4554;0,0068;0,1017;56,35138409;37,52106093;6,76000023;
21:05:16:335;-0,4554;0,0068;0,1017;56,35138409;37,52106093;6,76000023;
21:05:16:338;-0,4802;-0,0245;0,1107;56,35138409;37,52106093;6,76000023;
21:05:16:341;-0,4802;-0,0245;0,1107;56,35138409;37,52106093;6,76000023;
21:05:16:397;-0,4802;-0,0245;0,1107;56,35138409;37,52106093;6,76000023;
21:05:16:401;-0,4802;-0,0245;0,1107;56,35138409;37,52106093;6,76000023;
21:05:16:404;-0,5644;-0,0557;0,1912;56,35138409;37,52106093;6,76000023;
21:05:16:457;-0,5644;-0,0557;0,1912;56,35138409;37,52106093;6,76000023;
21:05:16:460;-0,5644;-0,0557;0,1912;56,35138409;37,52106093;6,76000023;
21:05:16:463;-0,6470;0,0433;-0,1676;56,35138409;37,52106093;6,76000023;
21:05:16:489;-0,6470;0,0433;-0,1676;56,35138409;37,52106093;6,76000023;
21:05:16:538;-0,6470;0,0433;-0,1676;56,35138409;37,52106093;6,76000023;
21:05:16:540;-0,6470;0,0433;-0,1676;56,35138409;37,52106093;6,76000023;
21:05:16:545;-0,3725;0,0335;-0,3691;56,35138409;37,52106093;6,76000023;
21:05:16:598;-0,3725;0,0335;-0,3691;56,35138409;37,52106093;6,76000023;
21:05:16:601;-0,3725;0,0335;-0,3691;56,35138409;37,52106093;6,76000023;
21:05:16:604;-0,2818;-0,0193;-0,0591;56,35138409;37,52106093;6,76000023;
21:05:16:664;-0,2818;-0,0193;-0,0591;56,35138409;37,52106093;6,76000023;
21:05:16:670;-0,2818;-0,0193;-0,0591;56,35138409;37,52106093;6,76000023;
21:05:16:672;-0,4842;-0,0880;0,2394;56,35138409;37,52106093;6,76000023;
21:05:16:717;-0,4842;-0,0880;0,2394;56,35138409;37,52106093;6,76000023;
21:05:16:719;-0,4842;-0,0880;0,2394;56,35139985;37,52093920;7,76999998;
21:05:16:722;-0,3935;-0,0463;0,1372;56,35139985;37,52093920;7,76999998;
21:05:16:798;-0,3935;-0,0463;0,1372;56,35139985;37,52093920;7,76999998;
21:05:16:800;-0,3935;-0,0463;0,1372;56,35139985;37,52093920;7,76999998;
21:05:16:802;-0,3883;-0,0709;0,0854;56,35139985;37,52093920;7,76999998;
21:05:16:858;-0,3883;-0,0709;0,0854;56,35139985;37,52093920;7,76999998;
21:05:16:861;-0,3883;-0,0709;0,0854;56,35139985;37,52093920;7,76999998;
21:05:16:863;-0,4598;-0,0139;-0,1186;56,35139985;37,52093920;7,76999998;
21:05:16:920;-0,4598;-0,0139;-0,1186;56,35139985;37,52093920;7,76999998;
21:05:16:923;-0,3699;-0,0760;-0,0881;56,35139985;37,52093920;7,76999998;
21:05:16:927;-0,3699;-0,0760;-0,0881;56,35139985;37,52093920;7,76999998;
21:05:16:980;-0,3699;-0,0760;-0,0881;56,35139985;37,52093920;7,76999998;
21:05:16:984;-0,3699;-0,0760;-0,0881;56,35139985;37,52093920;7,76999998;
21:05:16:986;-0,2364;-0,0830;0,0982;56,35139985;37,52093920;7,76999998;
21:05:17:009;-0,2364;-0,0830;0,0982;56,35139985;37,52093920;7,76999998;
21:05:17:012;-0,2032;-0,0763;0,0858;56,35139985;37,52093920;7,76999998;
21:05:17:060;-0,2032;-0,0763;0,0858;56,35139985;37,52093920;7,76999998;
21:05:17:064;-0,2032;-0,0763;0,0858;56,35139985;37,52093920;7,76999998;
21:05:17:067;-0,2848;0,0409;-0,1244;56,35139985;37,52093920;7,76999998;
21:05:17:121;-0,2848;0,0409;-0,1244;56,35139985;37,52093920;7,76999998;
21:05:17:125;-0,2848;0,0409;-0,1244;56,35139985;37,52093920;7,76999998;
21:05:17:127;-0,3386;-0,0074;-0,0440;56,35139985;37,52093920;7,76999998;
21:05:17:181;-0,3386;-0,0074;-0,0440;56,35139985;37,52093920;7,76999998;
21:05:17:185;-0,3386;-0,0074;-0,0440;56,35139985;37,52093920;7,76999998;
21:05:17:187;-0,3422;-0,0434;0,1926;56,35139985;37,52093920;7,76999998;
21:05:17:241;-0,3422;-0,0434;0,1926;56,35139985;37,52093920;7,76999998;
21:05:17:245;-0,3422;-0,0434;0,1926;56,35139985;37,52093920;7,76999998;
21:05:17:248;-0,2255;-0,1339;0,3028;56,35139985;37,52093920;7,76999998;
21:05:17:271;-0,2255;-0,1339;0,3028;56,35139985;37,52093920;7,76999998;
21:05:17:333;-0,2255;-0,1339;0,3028;56,35139985;37,52093920;7,76999998;
21:05:17:336;-0,2429;-0,4950;-0,0285;56,35139985;37,52093920;7,76999998;
21:05:17:339;-0,2429;-0,4950;-0,0285;56,35139985;37,52093920;7,76999998;
21:05:17:392;-0,2429;-0,4950;-0,0285;56,35139985;37,52093920;7,76999998;
21:05:17:395;-0,2429;-0,4950;-0,0285;56,35139985;37,52093920;7,76999998;
21:05:17:397;-0,3083;-0,0054;-0,0667;56,35139985;37,52093920;7,76999998;
21:05:17:452;-0,3083;-0,0054;-0,0667;56,35139985;37,52093920;7,76999998;
21:05:17:456;-0,2664;0,0034;-0,2578;56,35139985;37,52093920;7,76999998;
21:05:17:459;-0,2664;0,0034;-0,2578;56,35139985;37,52093920;7,76999998;
21:05:17:513;-0,2664;0,0034;-0,2578;56,35139985;37,52093920;7,76999998;
21:05:17:516;-0,2664;0,0034;-0,2578;56,35139985;37,52093920;7,76999998;
21:05:17:518;-0,2516;-0,0218;0,1817;56,35139985;37,52093920;7,76999998;
21:05:17:593;-0,2516;-0,0218;0,1817;56,35139985;37,52093920;7,76999998;
21:05:17:596;-0,2516;-0,0218;0,1817;56,35139985;37,52093920;7,76999998;
21:05:17:599;-0,2318;-0,0574;0,0580;56,35139985;37,52093920;7,76999998;
21:05:17:654;-0,2318;-0,0574;0,0580;56,35139985;37,52093920;7,76999998;
21:05:17:657;-0,2666;-0,1967;0,1685;56,35139985;37,52093920;7,76999998;
21:05:17:660;-0,2666;-0,1967;0,1685;56,35139985;37,52093920;7,76999998;
21:05:17:713;-0,2666;-0,1967;0,1685;56,35139985;37,52093920;7,76999998;
21:05:17:717;-0,2666;-0,1967;0,1685;56,35142385;37,52079943;8,81999969;
21:05:17:719;-0,2052;-0,1749;0,0556;56,35142385;37,52079943;8,81999969;
21:05:17:774;-0,2052;-0,1749;0,0556;56,35142385;37,52079943;8,81999969;
21:05:17:776;-0,2052;-0,1749;0,0556;56,35142385;37,52079943;8,81999969;
21:05:17:778;-0,3028;-0,2173;0,0371;56,35142385;37,52079943;8,81999969;
21:05:17:793;-0,3028;-0,2173;0,0371;56,35142385;37,52079943;8,81999969;
21:05:17:796;-0,2619;-0,1948;0,0316;56,35142385;37,52079943;8,81999969;
21:05:17:853;-0,2619;-0,1948;0,0316;56,35142385;37,52079943;8,81999969;
21:05:17:856;-0,2619;-0,1948;0,0316;56,35142385;37,52079943;8,81999969;
21:05:17:857;-0,0927;-0,2044;0,1330;56,35142385;37,52079943;8,81999969;
21:05:17:915;-0,0927;-0,2044;0,1330;56,35142385;37,52079943;8,81999969;
21:05:17:917;-0,0927;-0,2044;0,1330;56,35142385;37,52079943;8,81999969;
21:05:17:919;-0,0591;-0,1560;-0,0995;56,35142385;37,52079943;8,81999969;
21:05:17:975;-0,0591;-0,1560;-0,0995;56,35142385;37,52079943;8,81999969;
21:05:17:978;-0,0591;-0,1560;-0,0995;56,35142385;37,52079943;8,81999969;
21:05:17:980;-0,1341;-0,1093;-0,0432;56,35142385;37,52079943;8,81999969;
21:05:18:034;-0,1341;-0,1093;-0,0432;56,35142385;37,52079943;8,81999969;
21:05:18:037;-0,1341;-0,1093;-0,0432;56,35142385;37,52079943;8,81999969;
21:05:18:039;-0,0975;-0,1164;-0,0091;56,35142385;37,52079943;8,81999969;
21:05:18:061;-0,0975;-0,1164;-0,0091;56,35142385;37,52079943;8,81999969;
21:05:18:115;-0,0975;-0,1164;-0,0091;56,35142385;37,52079943;8,81999969;
21:05:18:118;-0,0975;-0,1164;-0,0091;56,35142385;37,52079943;8,81999969;
21:05:18:120;-0,2616;-0,0785;-0,0795;56,35142385;37,52079943;8,81999969;
21:05:18:177;-0,2616;-0,0785;-0,0795;56,35142385;37,52079943;8,81999969;
21:05:18:180;-0,2616;-0,0785;-0,0795;56,35142385;37,52079943;8,81999969;
21:05:18:183;-0,4046;-0,1044;-0,2902;56,35142385;37,52079943;8,81999969;
21:05:18:237;-0,4046;-0,1044;-0,2902;56,35142385;37,52079943;8,81999969;
21:05:18:239;-0,4046;-0,1044;-0,2902;56,35142385;37,52079943;8,81999969;
21:05:18:241;-0,0399;-0,0308;-0,3442;56,35142385;37,52079943;8,81999969;
21:05:18:297;-0,0399;-0,0308;-0,3442;56,35142385;37,52079943;8,81999969;
21:05:18:299;-0,2002;-0,0094;-0,1002;56,35142385;37,52079943;8,81999969;
21:05:18:301;-0,2002;-0,0094;-0,1002;56,35142385;37,52079943;8,81999969;
21:05:18:378;-0,2002;-0,0094;-0,1002;56,35142385;37,52079943;8,81999969;
21:05:18:380;-0,2002;-0,0094;-0,1002;56,35142385;37,52079943;8,81999969;
21:05:18:382;-0,1196;-0,2045;0,3244;56,35142385;37,52079943;8,81999969;
21:05:18:438;-0,1196;-0,2045;0,3244;56,35142385;37,52079943;8,81999969;
21:05:18:442;-0,1196;-0,2045;0,3244;56,35142385;37,52079943;8,81999969;
21:05:18:447;-0,2626;-0,1659;-0,4616;56,35142385;37,52079943;8,81999969;
21:05:18:496;-0,2626;-0,1659;-0,4616;56,35142385;37,52079943;8,81999969;
21:05:18:499;-0,2626;-0,1659;-0,4616;56,35142385;37,52079943;8,81999969;
21:05:18:501;-0,1092;-0,1013;0,2014;56,35142385;37,52079943;8,81999969;
21:05:18:558;-0,1092;-0,1013;0,2014;56,35142385;37,52079943;8,81999969;
21:05:18:561;-0,1092;-0,1013;0,2014;56,35142385;37,52079943;8,81999969;
21:05:18:566;-0,2852;-0,1147;0,2928;56,35142385;37,52079943;8,81999969;
21:05:18:586;-0,2852;-0,1147;0,2928;56,35142385;37,52079943;8,81999969;
21:05:18:590;-0,2871;-0,1348;0,2866;56,35142385;37,52079943;8,81999969;
21:05:18:639;-0,2871;-0,1348;0,2866;56,35142385;37,52079943;8,81999969;
21:05:18:642;-0,2871;-0,1348;0,2866;56,35142385;37,52079943;8,81999969;
21:05:18:644;-0,0093;-0,2981;0,3763;56,35142385;37,52079943;8,81999969;
21:05:18:699;-0,0093;-0,2981;0,3763;56,35142385;37,52079943;8,81999969;
21:05:18:702;-0,0093;-0,2981;0,3763;56,35144868;37,52065987;9,65999985;
21:05:18:704;0,0091;-0,0322;0,1788;56,35144868;37,52065987;9,65999985;
21:05:18:758;0,0091;-0,0322;0,1788;56,35144868;37,52065987;9,65999985;
21:05:18:761;0,0091;-0,0322;0,1788;56,35144868;37,52065987;9,65999985;
21:05:18:764;-0,0297;-0,1779;0,0107;56,35144868;37,52065987;9,65999985;
21:05:18:819;-0,0297;-0,1779;0,0107;56,35144868;37,52065987;9,65999985;
21:05:18:822;-0,0297;-0,1779;0,0107;56,35144868;37,52065987;9,65999985;
21:05:18:826;-0,0849;-0,2609;0,3649;56,35144868;37,52065987;9,65999985;
21:05:18:843;-0,0849;-0,2609;0,3649;56,35144868;37,52065987;9,65999985;
21:05:18:900;-0,0849;-0,2609;0,3649;56,35144868;37,52065987;9,65999985;
21:05:18:904;-0,0849;-0,2609;0,3649;56,35144868;37,52065987;9,65999985;
21:05:18:906;-0,2851;-0,1513;-0,0742;56,35144868;37,52065987;9,65999985;
21:05:18:959;-0,2851;-0,1513;-0,0742;56,35144868;37,52065987;9,65999985;
21:05:18:962;-0,2851;-0,1513;-0,0742;56,35144868;37,52065987;9,65999985;
21:05:18:964;-0,1423;-0,0717;-0,4778;56,35144868;37,52065987;9,65999985;
21:05:19:019;-0,1423;-0,0717;-0,4778;56,35144868;37,52065987;9,65999985;
21:05:19:022;-0,1423;-0,0717;-0,4778;56,35144868;37,52065987;9,65999985;
21:05:19:023;-0,1129;-0,1259;-0,1545;56,35144868;37,52065987;9,65999985;
21:05:19:080;-0,1129;-0,1259;-0,1545;56,35144868;37,52065987;9,65999985;
21:05:19:081;-0,1129;-0,1259;-0,1545;56,35144868;37,52065987;9,65999985;
21:05:19:082;-0,1475;-0,1683;0,0476;56,35144868;37,52065987;9,65999985;
21:05:19:161;-0,1475;-0,1683;0,0476;56,35144868;37,52065987;9,65999985;
21:05:19:164;-0,1475;-0,1683;0,0476;56,35144868;37,52065987;9,65999985;
21:05:19:167;-0,2449;-0,0810;-0,1236;56,35144868;37,52065987;9,65999985;
21:05:19:221;-0,2449;-0,0810;-0,1236;56,35144868;37,52065987;9,65999985;
21:05:19:224;-0,2449;-0,0810;-0,1236;56,35144868;37,52065987;9,65999985;
21:05:19:227;-0,1195;-0,1998;0,0483;56,35144868;37,52065987;9,65999985;
21:05:19:282;-0,1195;-0,1998;0,0483;56,35144868;37,52065987;9,65999985;
21:05:19:285;-0,1195;-0,1998;0,0483;56,35144868;37,52065987;9,65999985;
21:05:19:287;-0,1231;-0,1673;0,0498;56,35144868;37,52065987;9,65999985;
21:05:19:342;-0,1231;-0,1673;0,0498;56,35144868;37,52065987;9,65999985;
21:05:19:347;-0,1231;-0,1673;0,0498;56,35144868;37,52065987;9,65999985;
21:05:19:349;-0,1567;-0,0947;-0,1645;56,35144868;37,52065987;9,65999985;
21:05:19:362;-0,1567;-0,0947;-0,1645;56,35144868;37,52065987;9,65999985;
21:05:19:366;-0,1432;-0,0883;-0,1461;56,35144868;37,52065987;9,65999985;
21:05:19:422;-0,1432;-0,0883;-0,1461;56,35144868;37,52065987;9,65999985;
21:05:19:427;-0,1432;-0,0883;-0,1461;56,35144868;37,52065987;9,65999985;
21:05:19:429;0,1930;-0,1079;0,0343;56,35144868;37,52065987;9,65999985;
21:05:19:484;0,1930;-0,1079;0,0343;56,35144868;37,52065987;9,65999985;
21:05:19:487;0,1930;-0,1079;0,0343;56,35144868;37,52065987;9,65999985;
21:05:19:489;0,0455;-0,0079;-0,1776;56,35144868;37,52065987;9,65999985;
21:05:19:543;0,0455;-0,0079;-0,1776;56,35144868;37,52065987;9,65999985;
21:05:19:547;0,0455;-0,0079;-0,1776;56,35144868;37,52065987;9,65999985;
21:05:19:549;-0,0163;-0,0696;-0,0296;56,35144868;37,52065987;9,65999985;
21:05:19:602;-0,0163;-0,0696;-0,0296;56,35144868;37,52065987;9,65999985;
21:05:19:606;-0,0163;-0,0696;-0,0296;56,35144868;37,52065987;9,65999985;
21:05:19:608;0,0572;-0,0349;0,0177;56,35144868;37,52065987;9,65999985;
21:05:19:630;0,0572;-0,0349;0,0177;56,35144868;37,52065987;9,65999985;
21:05:19:690;0,0572;-0,0349;0,0177;56,35144868;37,52065987;9,65999985;
21:05:19:693;0,0572;-0,0349;0,0177;56,35148284;37,52050320;10,35999966;
21:05:19:696;0,3214;-0,1318;-0,1498;56,35148284;37,52050320;10,35999966;
21:05:19:744;0,3214;-0,1318;-0,1498;56,35148284;37,52050320;10,35999966;
21:05:19:746;0,3214;-0,1318;-0,1498;56,35148284;37,52050320;10,35999966;
21:05:19:748;0,0532;-0,0391;0,0239;56,35148284;37,52050320;10,35999966;
21:05:19:803;0,0532;-0,0391;0,0239;56,35148284;37,52050320;10,35999966;
21:05:19:806;0,0532;-0,0391;0,0239;56,35148284;37,52050320;10,35999966;
21:05:19:809;0,0724;0,0125;-0,1656;56,35148284;37,52050320;10,35999966;
21:05:19:865;0,0724;0,0125;-0,1656;56,35148284;37,52050320;10,35999966;
21:05:19:868;0,0724;0,0125;-0,1656;56,35148284;37,52050320;10,35999966;
21:05:19:871;0,1049;-0,1050;-0,0421;56,35148284;37,52050320;10,35999966;
21:05:19:945;0,1049;-0,1050;-0,0421;56,35148284;37,52050320;10,35999966;
21:05:19:949;0,1049;-0,1050;-0,0421;56,35148284;37,52050320;10,35999966;
21:05:19:951;0,0396;-0,1848;0,2397;56,35148284;37,52050320;10,35999966;
21:05:20:006;0,0396;-0,1848;0,2397;56,35148284;37,52050320;10,35999966;
21:05:20:009;-0,0276;-0,0676;0,1551;56,35148284;37,52050320;10,35999966;
21:05:20:012;-0,0276;-0,0676;0,1551;56,35148284;37,52050320;10,35999966;
21:05:20:066;-0,0276;-0,0676;0,1551;56,35148284;37,52050320;10,35999966;
21:05:20:070;-0,0276;-0,0676;0,1551;56,35148284;37,52050320;10,35999966;
21:05:20:072;-0,0893;-0,0677;-0,2475;56,35148284;37,52050320;10,35999966;
21:05:20:127;-0,0893;-0,0677;-0,2475;56,35148284;37,52050320;10,35999966;
21:05:20:130;-0,0893;-0,0677;-0,2475;56,35148284;37,52050320;10,35999966;
21:05:20:132;0,0824;-0,0386;-0,0650;56,35148284;37,52050320;10,35999966;
21:05:20:147;0,0714;-0,0370;-0,0625;56,35148284;37,52050320;10,35999966;
21:05:20:152;0,0714;-0,0370;-0,0625;56,35148284;37,52050320;10,35999966;
21:05:20:207;0,0714;-0,0370;-0,0625;56,35148284;37,52050320;10,35999966;
21:05:20:210;0,0714;-0,0370;-0,0625;56,35148284;37,52050320;10,35999966;
21:05:20:214;-0,1745;-0,0309;-0,1262;56,35148284;37,52050320;10,35999966;
21:05:20:267;-0,1745;-0,0309;-0,1262;56,35148284;37,52050320;10,35999966;
21:05:20:270;-0,1745;-0,0309;-0,1262;56,35148284;37,52050320;10,35999966;
